"Time (s)";"Acceleration x (m/s^2)";"Acceleration y (m/s^2)";"Acceleration z (m/s^2)";"Absolute acceleration (m/s^2)"
0.000000000E0;-4.135418415E0;6.766990662E0;4.975725651E0;9.362248332E0
1.925000000E-3;-4.187219143E0;6.812461376E0;5.072987556E0;9.469827712E0
3.921875000E-3;-4.233025551E0;6.853296757E0;5.178093433E0;9.575950781E0
5.921875000E-3;-4.273429871E0;6.879585266E0;5.292861938E0;9.674982367E0
7.921875000E-3;-4.308088303E0;6.893069267E0;5.413701534E0;9.766380755E0
9.921875000E-3;-4.331081867E0;6.895684242E0;5.538152218E0;9.847835361E0
1.192187500E-2;-4.337268353E0;6.892992496E0;5.666462421E0;9.921392981E0
1.392187500E-2;-4.346366882E0;6.894639969E0;5.789515018E0;9.997272104E0
1.592187500E-2;-4.342316151E0;6.886384964E0;5.909856796E0;1.006004050E1
1.792187500E-2;-4.303960323E0;6.871196270E0;6.022863388E0;1.010011366E1
1.992187500E-2;-4.257819176E0;6.848249912E0;6.129961014E0;1.012936193E1
2.192187500E-2;-4.182143688E0;6.801543713E0;6.224263668E0;1.012387183E1
2.392187500E-2;-4.092811108E0;6.749283314E0;6.302994728E0;1.010107274E1
2.592187500E-2;-3.989582777E0;6.680655956E0;6.373001099E0;1.005798577E1
2.792187500E-2;-3.857681513E0;6.585692406E0;6.435020447E0;9.983112704E0
2.992187500E-2;-3.751982212E0;6.463195324E0;6.496876717E0;9.902508338E0
3.192187500E-2;-3.612467289E0;6.345075130E0;6.568435192E0;9.821111913E0
3.392187500E-2;-3.441875696E0;6.250264645E0;6.593066216E0;9.714980111E0
3.609687500E-2;-3.252925396E0;6.164906502E0;6.583460808E0;9.587989988E0
3.792187500E-2;-3.076300383E0;6.072720051E0;6.576460361E0;9.465272513E0
3.992187500E-2;-2.938499451E0;5.977469444E0;6.582100868E0;9.364238988E0
4.192187500E-2;-2.855602741E0;5.880523205E0;6.595958710E0;9.286640484E0
4.392187500E-2;-2.813503027E0;5.800096989E0;6.620964050E0;9.240892236E0
4.592187500E-2;-2.801848173E0;5.750211716E0;6.666290760E0;9.238761847E0
4.792187500E-2;-2.820723772E0;5.718254089E0;6.722554684E0;9.265400904E0
4.992187500E-2;-2.872170687E0;5.702528954E0;6.789103508E0;9.319878077E0
5.192187500E-2;-2.952270985E0;5.675244808E0;6.858305454E0;9.378734526E0
5.392187500E-2;-3.028588533E0;5.641333103E0;6.924673080E0;9.431229239E0
5.592187500E-2;-3.086403847E0;5.610179901E0;6.983369350E0;9.474568840E0
5.792187500E-2;-3.129260063E0;5.583977699E0;7.041404724E0;9.516010507E0
5.992187500E-2;-3.155864239E0;5.571096897E0;7.086396694E0;9.550582068E0
6.192187500E-2;-3.168045998E0;5.570110321E0;7.129942417E0;9.586382180E0
6.392187500E-2;-3.158287048E0;5.574745655E0;7.177874088E0;9.621561340E0
6.592187500E-2;-3.135120869E0;5.583489418E0;7.225633621E0;9.654745888E0
6.792187500E-2;-3.113151789E0;5.598103046E0;7.261690617E0;9.683110161E0
6.992187500E-2;-3.083655357E0;5.614594936E0;7.291081429E0;9.705280782E0
7.192187500E-2;-3.044016838E0;5.620340824E0;7.317752838E0;9.716160563E0
7.392187500E-2;-3.009291172E0;5.619076729E0;7.341628075E0;9.722621016E0
7.592187500E-2;-2.966243505E0;5.608973026E0;7.363146782E0;9.719830733E0
7.792187500E-2;-2.932945013E0;5.605257511E0;7.382683754E0;9.722401845E0
7.992187500E-2;-2.922688246E0;5.597346783E0;7.402441025E0;9.729775471E0
8.192187500E-2;-2.907183409E0;5.584887028E0;7.416068554E0;9.728347819E0
8.392187500E-2;-2.852049589E0;5.556272030E0;7.425492287E0;9.702797608E0
8.592187500E-2;-2.735595703E0;5.475711346E0;7.428259850E0;9.625276255E0
8.792187500E-2;-2.626544714E0;5.392402649E0;7.433622360E0;9.551726800E0
8.992187500E-2;-2.552439213E0;5.331532478E0;7.476699352E0;9.531065927E0
9.192187500E-2;-2.491195440E0;5.277912140E0;7.554913044E0;9.546681223E0
9.392187500E-2;-2.431388378E0;5.229424953E0;7.650843620E0;9.580915556E0
9.592187500E-2;-2.372060061E0;5.179912567E0;7.758602142E0;9.625698434E0
9.792187500E-2;-2.302666426E0;5.125516415E0;7.879528522E0;9.677817983E0
9.992187500E-2;-2.247465849E0;5.085830212E0;8.007445335E0;9.748638494E0
1.019218750E-1;-2.215785980E0;5.050894260E0;8.127644539E0;9.822415492E0
1.039218750E-1;-2.260020971E0;5.052186966E0;8.215904236E0;9.906228866E0
1.059218750E-1;-2.478247881E0;5.168545246E0;8.167531967E0;9.978183750E0
1.079218750E-1;-2.651664495E0;5.242018700E0;8.158069611E0;1.005306841E1
1.099218750E-1;-2.729466438E0;5.254611969E0;8.197104454E0;1.011204507E1
1.119218750E-1;-2.713798761E0;5.229645252E0;8.284301758E0;1.016580291E1
1.139218750E-1;-2.596348763E0;5.165288925E0;8.467726707E0;1.025298162E1
1.160968750E-1;-2.446318626E0;5.073342323E0;8.617880821E0;1.029520019E1
1.179218750E-1;-2.271819592E0;4.968830585E0;8.701735497E0;1.027475753E1
1.199218750E-1;-2.077841520E0;4.850327015E0;8.750500679E0;1.021833449E1
1.219218750E-1;-1.889235854E0;4.718042374E0;8.784545898E0;1.014876261E1
1.239218750E-1;-1.726401329E0;4.584905624E0;8.804206848E0;1.007550889E1
1.259218750E-1;-1.578228951E0;4.458195210E0;8.827010155E0;1.001411101E1
1.279218750E-1;-1.447103381E0;4.336282253E0;8.845148087E0;9.956610701E0
1.299218750E-1;-1.316418290E0;4.214484215E0;8.847677231E0;9.888186219E0
1.319218750E-1;-1.190713167E0;4.092035294E0;8.840207100E0;9.813858174E0
1.339218750E-1;-1.062853098E0;3.988424063E0;8.819386482E0;9.737492549E0
1.359218750E-1;-9.586575031E-1;3.891027927E0;8.790349960E0;9.660712964E0
1.379218750E-1;-8.648717999E-1;3.805957079E0;8.767585754E0;9.597076246E0
1.399218750E-1;-7.465599775E-1;3.731439829E0;8.748096466E0;9.539925931E0
1.419218750E-1;-6.292920113E-1;3.656625986E0;8.724863052E0;9.481041995E0
1.439218750E-1;-5.163335800E-1;3.580739260E0;8.705327034E0;9.427142344E0
1.459218750E-1;-3.946889341E-1;3.501625299E0;8.700078964E0;9.386614570E0
1.479218750E-1;-2.484128028E-1;3.440755129E0;8.692215919E0;9.351744349E0
1.499218750E-1;-7.694964856E-2;3.388963938E0;8.678013802E0;9.316593871E0
1.519218750E-1;1.220085248E-1;3.363834143E0;8.630455017E0;9.263639675E0
1.539218750E-1;2.223542929E-1;3.344690084E0;8.620936394E0;9.249699319E0
1.559218750E-1;2.473497689E-1;3.324483156E0;8.667459488E0;9.286453798E0
1.579218750E-1;2.190503031E-1;3.331052780E0;8.741642952E0;9.357361656E0
1.599218750E-1;1.601720899E-1;3.366410494E0;8.832612038E0;9.453751114E0
1.619218750E-1;7.427770644E-2;3.401288986E0;8.932306290E0;9.558262373E0
1.639218750E-1;-3.395935893E-2;3.426696301E0;9.037441254E0;9.665337303E0
1.659218750E-1;-1.704192758E-1;3.452228308E0;9.162523270E0;9.792791006E0
1.679218750E-1;-3.267414868E-1;3.475250721E0;9.294856071E0;9.928669446E0
1.699218750E-1;-4.736784399E-1;3.495189667E0;9.443641663E0;1.008082784E1
1.719218750E-1;-5.884852409E-1;3.527731657E0;9.605652809E0;1.024986690E1
1.739218750E-1;-6.501502395E-1;3.572972775E0;9.758344650E0;1.041221014E1
1.759218750E-1;-6.618052125E-1;3.620923519E0;9.865470886E0;1.052979530E1
1.779218750E-1;-6.154247522E-1;3.672073126E0;9.915318489E0;1.059133653E1
1.799218750E-1;-5.356595516E-1;3.716366053E0;9.913575172E0;1.060081509E1
1.819218750E-1;-4.651072025E-1;3.790892839E0;9.877297401E0;1.059000459E1
1.837703120E-1;-4.344518483E-1;3.885367870E0;9.833876610E0;1.058253094E1
1.859218750E-1;-4.200770557E-1;3.928118944E0;9.810864449E0;1.057637199E1
1.879218750E-1;-3.993624151E-1;4.009972095E0;9.767318726E0;1.056597755E1
1.899218750E-1;-4.055011570E-1;4.075190067E0;9.724816322E0;1.055195043E1
1.919218750E-1;-4.354478121E-1;4.129882812E0;9.681300163E0;1.053437799E1
1.939218750E-1;-4.792138338E-1;4.160720348E0;9.646114349E0;1.051611914E1
1.960968750E-1;-5.402563810E-1;4.173543453E0;9.626491547E0;1.050617349E1
1.979437500E-1;-6.089603901E-1;4.167462349E0;9.611627579E0;1.049390108E1
1.999218750E-1;-6.740347743E-1;4.159877300E0;9.583826065E0;1.046941374E1
2.019218750E-1;-7.352593541E-1;4.149965286E0;9.564165115E0;1.045160622E1
2.039218750E-1;-7.980640531E-1;4.154735088E0;9.545328140E0;1.044088211E1
2.059218750E-1;-8.576126099E-1;4.171589851E0;9.529870987E0;1.043820398E1
2.079234370E-1;-9.064735174E-1;4.198146343E0;9.510363579E0;1.043518770E1
2.099218750E-1;-9.357784986E-1;4.246500015E0;9.486038208E0;1.043519835E1
2.119218750E-1;-9.534956217E-1;4.314274788E0;9.469910622E0;1.044994392E1
2.139218750E-1;-9.680619240E-1;4.384951591E0;9.454377174E0;1.046662276E1
2.160687500E-1;-9.787017703E-1;4.457218170E0;9.424324989E0;1.047103397E1
2.182984370E-1;-9.969264269E-1;4.524820805E0;9.401350975E0;1.048109087E1
2.201062500E-1;-1.009165645E0;4.604988098E0;9.391332626E0;1.050816155E1
2.219218750E-1;-1.004051566E0;4.682273388E0;9.388498306E0;1.053924590E1
2.239218750E-1;-9.755892754E-1;4.747644424E0;9.379715919E0;1.055798147E1
2.259218750E-1;-9.381535649E-1;4.803908348E0;9.361080170E0;1.056349798E1
2.279218750E-1;-8.939470053E-1;4.854310989E0;9.334934235E0;1.055956787E1
2.299218750E-1;-8.463790417E-1;4.905259609E0;9.316968918E0;1.056332519E1
2.319218750E-1;-8.128602505E-1;4.945750713E0;9.296062469E0;1.056115379E1
2.339218750E-1;-7.934097052E-1;4.978330612E0;9.284369469E0;1.056469550E1
2.359218750E-1;-7.934097052E-1;4.989401340E0;9.276574135E0;1.056307022E1
2.379218750E-1;-8.104181290E-1;4.969874382E0;9.265464783E0;1.054539077E1
2.399218750E-1;-8.273499012E-1;4.929948807E0;9.254853249E0;1.051861263E1
2.419218750E-1;-8.431516886E-1;4.886096001E0;9.236379623E0;1.048310772E1
2.439218750E-1;-8.535233140E-1;4.837139606E0;9.193274498E0;1.042318174E1
2.459218750E-1;-8.308550119E-1;4.781671047E0;9.135814667E0;1.034494116E1
2.479218750E-1;-7.845128775E-1;4.742061138E0;9.065032005E0;1.026047804E1
2.499218750E-1;-7.023438811E-1;4.703639030E0;8.991281509E0;1.017156086E1
2.519218750E-1;-6.203280687E-1;4.674812794E0;8.942525864E0;1.010977005E1
2.539218750E-1;-5.186032653E-1;4.655448914E0;8.890609741E0;1.004913407E1
2.559218750E-1;-3.616585433E-1;4.636965275E0;8.799467087E0;9.953032948E0
2.579218750E-1;-2.543695569E-1;4.599960327E0;8.777688980E0;9.913231699E0
2.599218750E-1;-1.872074157E-1;4.550429344E0;8.806237221E0;9.914195268E0
2.619218750E-1;-1.289612800E-1;4.496119022E0;8.819051743E0;9.899868227E0
2.639218750E-1;-7.861600816E-2;4.450332642E0;8.838913918E0;9.896365006E0
2.660984370E-1;-2.172977477E-2;4.420587063E0;8.854811668E0;9.896956696E0
2.679765620E-1;3.444777429E-2;4.392364025E0;8.858096123E0;9.887361392E0
2.699218750E-1;1.393042356E-1;4.414975166E0;8.823390007E0;9.867300675E0
2.719218750E-1;2.961148620E-1;4.479503632E0;8.708573341E0;9.797595952E0
2.739218750E-1;3.547536731E-1;4.451864719E0;8.605048180E0;9.694937020E0
2.760968750E-1;3.606721163E-1;4.421142578E0;8.558485031E0;9.639722615E0
2.779218750E-1;3.612371385E-1;4.440315247E0;8.548678398E0;9.639854465E0
2.799218750E-1;3.275555074E-1;4.471842289E0;8.535405159E0;9.641462923E0
2.819218750E-1;2.436531186E-1;4.463481426E0;8.522486687E0;9.623659003E0
2.839218750E-1;1.065036729E-1;4.425078392E0;8.494091988E0;9.578218023E0
2.859218750E-1;-5.545929074E-2;4.345610142E0;8.463550568E0;9.514152167E0
2.879218750E-1;-2.000211775E-1;4.253519535E0;8.434867859E0;9.448779429E0
2.899218750E-1;-3.096564710E-1;4.211133003E0;8.429207802E0;9.427675878E0
2.919218750E-1;-3.714939356E-1;4.214590073E0;8.429390907E0;9.431617480E0
2.939218750E-1;-3.732752204E-1;4.236424923E0;8.416471481E0;9.429932275E0
2.959218750E-1;-3.276417255E-1;4.280612469E0;8.390795708E0;9.425308739E0
2.979218750E-1;-2.630270123E-1;4.338829517E0;8.388152122E0;9.447524587E0
2.999218750E-1;-1.778125763E-1;4.414927483E0;8.391120911E0;9.483359749E0
3.019218750E-1;-8.905472606E-2;4.496923923E0;8.393553734E0;9.522709688E0
3.039218750E-1;-8.619125932E-3;4.570933342E0;8.407880783E0;9.570055651E0
3.059218750E-1;7.656657696E-2;4.639024258E0;8.418635368E0;9.612483028E0
3.079218750E-1;1.517349184E-1;4.693803787E0;8.432991028E0;9.652468863E0
3.099218750E-1;2.154781520E-1;4.734236717E0;8.433757782E0;9.674073519E0
3.119218750E-1;3.122996688E-1;4.775570393E0;8.413234711E0;9.679159155E0
3.139218750E-1;4.384070635E-1;4.814509869E0;8.371421814E0;9.667078629E0
3.159218750E-1;5.581458807E-1;4.846706867E0;8.340278625E0;9.662419047E0
3.179218750E-1;6.852109432E-1;4.857538700E0;8.325405121E0;9.663206853E0
3.199218750E-1;8.175049424E-1;4.882801533E0;8.332396507E0;9.692208040E0
3.219218750E-1;9.388239980E-1;4.908017635E0;8.351923943E0;9.732659511E0
3.239218750E-1;1.061464429E0;4.938960552E0;8.368893623E0;9.775398639E0
3.259218750E-1;1.160507798E0;4.972450733E0;8.384618759E0;9.817019730E0
3.279218750E-1;1.242245913E0;4.992830276E0;8.381467819E0;9.834659724E0
3.299218750E-1;1.314445376E0;4.997905731E0;8.361509323E0;9.829632064E0
3.319218750E-1;1.350961804E0;4.996210575E0;8.343046188E0;9.818026156E0
3.339218750E-1;1.367979884E0;4.973226070E0;8.318519592E0;9.787855471E0
3.359218750E-1;1.386204481E0;4.950232506E0;8.284550667E0;9.749879203E0
3.379218750E-1;1.396058917E0;4.926270962E0;8.252640724E0;9.712013438E0
3.399218750E-1;1.404141903E0;4.900384903E0;8.227607727E0;9.678786886E0
3.419218750E-1;1.415720224E0;4.882533550E0;8.225308418E0;9.669493068E0
3.439218750E-1;1.422423959E0;4.862834454E0;8.223958015E0;9.659396165E0
3.459218750E-1;1.436731696E0;4.843115807E0;8.220702171E0;9.648829612E0
3.479218750E-1;1.439566374E0;4.822487354E0;8.225500107E0;9.643007188E0
3.499218750E-1;1.464657664E0;4.807499409E0;8.225826263E0;9.639579366E0
3.519218750E-1;1.505540967E0;4.803266525E0;8.223997116E0;9.642206774E0
3.539218750E-1;1.560531139E0;4.797798157E0;8.209573746E0;9.635934084E0
3.560968750E-1;1.618135571E0;4.793958187E0;8.180891991E0;9.619115946E0
3.579218750E-1;1.681122184E0;4.788384438E0;8.153980255E0;9.604279844E0
3.599218750E-1;1.735087514E0;4.772218704E0;8.128448486E0;9.584167926E0
3.619218750E-1;1.795047998E0;4.760687828E0;8.105024338E0;9.569627236E0
3.639218750E-1;1.858752847E0;4.747060776E0;8.102093697E0;9.572537303E0
3.659218750E-1;1.921337247E0;4.716242313E0;8.110234261E0;9.576553563E0
3.679218750E-1;1.976068735E0;4.664134979E0;8.109716415E0;9.561720718E0
3.699218750E-1;2.032341957E0;4.613703251E0;8.124694824E0;9.561764351E0
3.719218750E-1;2.088960171E0;4.555716038E0;8.161536217E0;9.577524556E0
3.739218750E-1;2.157396078E0;4.507860184E0;8.210072517E0;9.611475018E0
3.759218750E-1;2.242112637E0;4.463443279E0;8.266766548E0;9.658613987E0
3.779218750E-1;2.334806442E0;4.424092293E0;8.314191818E0;9.703076797E0
3.799218750E-1;2.425374269E0;4.386369228E0;8.354087830E0;9.742353864E0
3.819218750E-1;2.509937525E0;4.331187725E0;8.388459206E0;9.768583384E0
3.839218750E-1;2.579407454E0;4.260826588E0;8.417745590E0;9.780921574E0
3.859218750E-1;2.634464502E0;4.189967632E0;8.455333710E0;9.797392516E0
3.879218750E-1;2.646675110E0;4.074778080E0;8.471097946E0;9.765664645E0
3.899218750E-1;2.643811464E0;3.961178064E0;8.482704163E0;9.728151964E0
3.919218750E-1;2.648149967E0;3.890386343E0;8.481450081E0;9.699628839E0
3.939218750E-1;2.662697077E0;3.833327532E0;8.474612236E0;9.674885438E0
3.959218750E-1;2.698916435E0;3.787406683E0;8.471787453E0;9.664356262E0
3.979218750E-1;2.721690178E0;3.739120722E0;8.467324257E0;9.648015406E0
3.999218750E-1;2.745172501E0;3.686859846E0;8.455027580E0;9.623741422E0
4.019218750E-1;2.764670849E0;3.619697809E0;8.435089111E0;9.586258157E0
4.039218750E-1;2.769698620E0;3.546023369E0;8.397931099E0;9.527368940E0
4.059218750E-1;2.781957150E0;3.474523067E0;8.355524063E0;9.467120919E0
4.079218750E-1;2.822380543E0;3.424321175E0;8.311691284E0;9.422102708E0
4.099218750E-1;2.869948626E0;3.399019480E0;8.280873299E0;9.400148995E0
4.119218750E-1;2.924689770E0;3.389911890E0;8.259966850E0;9.395337420E0
4.139218750E-1;2.987992525E0;3.390831232E0;8.264507294E0;9.419549702E0
4.159218750E-1;3.037188530E0;3.408203602E0;8.278958321E0;9.454179860E0
4.179218750E-1;3.083798885E0;3.417990923E0;8.311298370E0;9.501060894E0
4.199218750E-1;3.124701500E0;3.431982994E0;8.347528458E0;9.551099313E0
4.219218750E-1;3.165891171E0;3.448292017E0;8.398552895E0;9.615054626E0
4.239218750E-1;3.232306480E0;3.443685532E0;8.450966835E0;9.681199082E0
4.259218750E-1;3.308269501E0;3.421256781E0;8.489494324E0;9.732479587E0
4.279218750E-1;3.401336908E0;3.374933720E0;8.512488365E0;9.768404606E0
4.299218750E-1;3.499691010E0;3.341874599E0;8.530579567E0;9.807484425E0
4.319218750E-1;3.583775043E0;3.309150696E0;8.543326378E0;9.837801964E0
4.339218750E-1;3.634541750E0;3.278514385E0;8.559864998E0;9.860519210E0
4.360984370E-1;3.634168386E0;3.241183996E0;8.573444366E0;9.859837821E0
4.379218750E-1;3.612725735E0;3.228245735E0;8.588996887E0;9.861248668E0
4.399218750E-1;3.559507608E0;3.230754852E0;8.610143661E0;9.861158411E0
4.419218750E-1;3.474206924E0;3.227268934E0;8.647712708E0;9.862469954E0
4.439218750E-1;3.349133730E0;3.228341579E0;8.697550774E0;9.863380534E0
4.459218750E-1;3.182545185E0;3.223763943E0;8.770947456E0;9.871715509E0
4.479218750E-1;2.984841824E0;3.234241009E0;8.857952118E0;9.891052084E0
4.499218750E-1;2.761970282E0;3.256478310E0;8.956420898E0;9.922227881E0
4.519218750E-1;2.530355215E0;3.307714224E0;9.059792519E0;9.971133907E0
4.539218750E-1;2.297906876E0;3.380919218E0;9.159899712E0;1.003069058E1
4.559218750E-1;2.088433266E0;3.470318794E0;9.252709389E0;1.010036123E1
4.579218750E-1;1.903553128E0;3.586131096E0;9.328642845E0;1.017386004E1
4.599218750E-1;1.740718722E0;3.731114149E0;9.402777672E0;1.026467449E1
4.619218750E-1;1.583333492E0;3.879372835E0;9.460419655E0;1.034678784E1
4.639218750E-1;1.429874778E0;4.000653744E0;9.490883827E0;1.039839642E1
4.659218750E-1;1.319942474E0;4.121512890E0;9.497443199E0;1.043697964E1
4.679218750E-1;1.263487339E0;4.248204708E0;9.501235962E0;1.048413698E1
4.699218750E-1;1.244869947E0;4.373651028E0;9.463599205E0;1.049943972E1
4.719218750E-1;1.282171607E0;4.500083923E0;9.397663116E0;1.049813276E1
4.739218750E-1;1.411391497E0;4.659518719E0;9.305448532E0;1.050211945E1
4.759218750E-1;1.690957665E0;4.983482838E0;9.233928680E0;1.062825846E1
4.779218750E-1;2.254466534E0;5.491762161E0;9.182472229E0;1.093434347E1
4.799218750E-1;2.750918627E0;5.771031857E0;9.011554718E0;1.104900359E1
4.819218750E-1;3.026472092E0;5.854101181E0;8.811725616E0;1.100347865E1
4.839218750E-1;3.141968250E0;5.837465763E0;8.630608559E0;1.088280180E1
4.859218750E-1;3.183301687E0;5.809549809E0;8.473883629E0;1.075597426E1
4.879218750E-1;3.219559669E0;5.806092262E0;8.316527367E0;1.064147073E1
4.899218750E-1;3.221905947E0;5.781949043E0;8.157446861E0;1.050502508E1
4.919218750E-1;3.182928562E0;5.735980511E0;8.016812325E0;1.035865756E1
4.939218750E-1;3.113094330E0;5.691246986E0;7.902034283E0;1.022368790E1
4.959218750E-1;3.029306889E0;5.626259327E0;7.810211658E0;1.009112979E1
4.979218750E-1;2.929679155E0;5.565714359E0;7.750672340E0;9.981639044E0
4.999218750E-1;2.821528435E0;5.497632980E0;7.709635735E0;9.880459213E0
5.019218750E-1;2.663405657E0;5.401884079E0;7.680608273E0;9.760421340E0
5.039218750E-1;2.489423752E0;5.337010860E0;7.679468632E0;9.677559300E0
5.059218750E-1;2.327614307E0;5.305225372E0;7.710114956E0;9.644121383E0
5.079218750E-1;2.172565699E0;5.271218300E0;7.733137131E0;9.607663294E0
5.099218750E-1;2.051074266E0;5.234673023E0;7.734660149E0;9.562095739E0
5.119218750E-1;1.950498700E0;5.185093880E0;7.722717762E0;9.504210296E0
5.139218750E-1;1.838268042E0;5.132009983E0;7.699015141E0;9.433535392E0
5.160968750E-1;1.715512514E0;5.102494240E0;7.694025993E0;9.390232513E0
5.179218750E-1;1.590190411E0;5.066073418E0;7.681949139E0;9.338423207E0
5.199218750E-1;1.484376311E0;5.018773556E0;7.638939857E0;9.259852223E0
5.219218750E-1;1.399219394E0;4.966129780E0;7.565122128E0;9.157037332E0
5.239218750E-1;1.338674784E0;4.909617424E0;7.468453407E0;9.037377370E0
5.259218750E-1;1.294621468E0;4.861120224E0;7.350821972E0;8.907363147E0
5.279218750E-1;1.256936789E0;4.821615696E0;7.226744652E0;8.778024053E0
5.299218750E-1;1.211437345E0;4.792981148E0;7.095513821E0;8.647922589E0
5.319218750E-1;1.161321878E0;4.773501873E0;6.982804298E0;8.537830199E0
5.339218750E-1;1.115956545E0;4.766529560E0;6.893940926E0;8.455269632E0
5.359218750E-1;1.086096048E0;4.758111954E0;6.831279755E0;8.395571278E0
5.379218750E-1;1.059568405E0;4.754137516E0;6.785924435E0;8.353040115E0
5.399218750E-1;1.040213585E0;4.747606277E0;6.771396160E0;8.335083420E0
5.419218750E-1;1.024172544E0;4.739676952E0;6.781988144E0;8.337195584E0
5.439218750E-1;1.017430305E0;4.728864193E0;6.841775894E0;8.378974780E0
5.459218750E-1;1.018148661E0;4.737090588E0;6.944343567E0;8.467618408E0
5.479218750E-1;1.012230158E0;4.764394760E0;7.091280937E0;8.602925819E0
5.499218750E-1;1.004032373E0;4.805009842E0;7.268614292E0;8.770915250E0
5.519218750E-1;1.003534436E0;4.839361668E0;7.436860085E0;8.929355555E0
5.539218750E-1;1.012871861E0;4.865036964E0;7.585951805E0;9.068691133E0
5.559218750E-1;1.048162341E0;4.896803379E0;7.714960575E0;9.197714080E0
5.579218750E-1;1.095806956E0;4.924987793E0;7.827545643E0;9.312720786E0
5.599218750E-1;1.146765113E0;4.935636997E0;7.921216488E0;9.403257597E0
5.619218750E-1;1.198661923E0;4.932189465E0;7.985045910E0;9.461725081E0
5.639218750E-1;1.240263581E0;4.911331177E0;8.031637192E0;9.495610758E0
5.659218750E-1;1.261983752E0;4.869452000E0;8.064246178E0;9.504537452E0
5.679218750E-1;1.270152688E0;4.817277431E0;8.085889816E0;9.497424063E0
5.699218750E-1;1.274414420E0;4.761233807E0;8.096490860E0;9.478746949E0
5.719218750E-1;1.273360968E0;4.712804317E0;8.094853401E0;9.452969072E0
5.739218750E-1;1.261600614E0;4.665369987E0;8.086598396E0;9.420742373E0
5.759203120E-1;1.239956975E0;4.629572392E0;8.072463036E0;9.388029255E0
5.779203120E-1;1.211466074E0;4.595324993E0;8.065749168E0;9.361675677E0
5.799218750E-1;1.182036519E0;4.563310146E0;8.053376198E0;9.331552819E0
5.819218750E-1;1.153440237E0;4.545640945E0;8.038378716E0;9.306385354E0
5.839218750E-1;1.120773673E0;4.530068874E0;8.026187897E0;9.284252786E0
5.859218750E-1;1.076193571E0;4.513453007E0;8.018852234E0;9.264525989E0
5.879218750E-1;1.031201839E0;4.505322933E0;8.022271156E0;9.258409500E0
5.899218750E-1;1.009270906E0;4.511126041E0;8.028820992E0;9.264494181E0
5.919218750E-1;1.001935124E0;4.533047199E0;8.043521881E0;9.287122006E0
5.939218750E-1;1.024881124E0;4.575032234E0;8.064198494E0;9.328054385E0
5.960968750E-1;1.089467168E0;4.614862442E0;8.098770142E0;9.384773406E0
5.979218750E-1;1.185512900E0;4.670034409E0;8.139098167E0;9.458307523E0
5.999218750E-1;1.299687624E0;4.733834743E0;8.182356834E0;9.541977922E0
6.019218750E-1;1.429654360E0;4.804990292E0;8.216938019E0;9.625482518E0
6.039218750E-1;1.580125213E0;4.886307240E0;8.242881775E0;9.711740013E0
6.059218750E-1;1.719879627E0;4.956055164E0;8.246972084E0;9.774099308E0
6.079218750E-1;1.857594132E0;5.009043694E0;8.218402863E0;9.802209970E0
6.099218750E-1;1.982542634E0;5.050606728E0;8.155752182E0;9.795682583E0
6.119218750E-1;2.073168039E0;5.076099873E0;8.072185516E0;9.758329501E0
6.139218750E-1;2.136145115E0;5.098328114E0;7.981665134E0;9.708915687E0
6.160984370E-1;2.156093597E0;5.132124424E0;7.888721943E0;9.655018104E0
6.179828120E-1;2.116321087E0;5.173793316E0;7.793892384E0;9.591230928E0
6.199218750E-1;2.028051615E0;5.253558636E0;7.677304745E0;9.521233105E0
6.219218750E-1;1.932992339E0;5.362044334E0;7.585271358E0;9.488114692E0
6.239218750E-1;1.787941933E0;5.394040585E0;7.538785458E0;9.440640675E0
6.259218750E-1;1.612399101E0;5.365023136E0;7.517860413E0;9.375581544E0
6.279218750E-1;1.447582245E0;5.349977493E0;7.523961067E0;9.344931443E0
6.299218750E-1;1.301631689E0;5.338542938E0;7.547788143E0;9.336133654E0
6.319218750E-1;1.161111236E0;5.318374634E0;7.601140022E0;9.349364560E0
6.339218750E-1;1.033222556E0;5.291654587E0;7.670294285E0;9.375637127E0
6.359218750E-1;9.184061885E-1;5.280986309E0;7.759502411E0;9.430915331E0
6.379218750E-1;8.206174374E-1;5.282336712E0;7.847149372E0;9.494959051E0
6.399218750E-1;7.258453369E-1;5.283428669E0;7.913277149E0;9.542611026E0
6.419218750E-1;6.580032110E-1;5.296778679E0;7.949793339E0;9.575387550E0
6.439218750E-1;6.265529990E-1;5.332557678E0;7.968085289E0;9.608284094E0
6.459218750E-1;6.104543805E-1;5.355542183E0;7.963689327E0;9.616383641E0
6.479218750E-1;6.240534782E-1;5.353923321E0;7.959130764E0;9.612580308E0
6.499218750E-1;6.770802736E-1;5.346415043E0;7.954036236E0;9.607772060E0
6.519218750E-1;7.643536925E-1;5.345247269E0;7.966437817E0;9.623930404E0
6.539218750E-1;8.768428564E-1;5.352017403E0;8.005942345E0;9.669956386E0
6.559218750E-1;9.944747686E-1;5.362791538E0;8.052409172E0;9.725729105E0
6.579218750E-1;1.117584586E0;5.387796402E0;8.091673851E0;9.785322227E0
6.599218750E-1;1.227248669E0;5.408596992E0;8.121898651E0;9.834851215E0
6.619218750E-1;1.305950761E0;5.418930531E0;8.126552582E0;9.854500107E0
6.639218750E-1;1.365623951E0;5.421574116E0;8.100551605E0;9.842628256E0
6.659218750E-1;1.416285276E0;5.422522068E0;8.046969414E0;9.806290140E0
6.677718750E-1;1.449880600E0;5.407438278E0;7.980410576E0;9.748307312E0
6.699218750E-1;1.462924361E0;5.395984650E0;7.940944195E0;9.711611232E0
6.719218750E-1;1.491482258E0;5.364802837E0;7.855634212E0;9.628946863E0
6.739218750E-1;1.522750616E0;5.329023838E0;7.769587040E0;9.543780555E0
6.760968750E-1;1.557591081E0;5.298828125E0;7.694945335E0;9.471845289E0
6.779218750E-1;1.571065545E0;5.277060032E0;7.647942543E0;9.423727217E0
6.799218750E-1;1.559391499E0;5.265902996E0;7.620858669E0;9.393557530E0
6.819218750E-1;1.536148548E0;5.262570381E0;7.614365578E0;9.382588264E0
6.839218750E-1;1.509285688E0;5.270950317E0;7.609098434E0;9.378658727E0
6.859218750E-1;1.494470358E0;5.286636829E0;7.611138821E0;9.386767535E0
6.879218750E-1;1.482805729E0;5.304622173E0;7.610171318E0;9.394276807E0
6.899218750E-1;1.471466780E0;5.313595772E0;7.613082409E0;9.399922248E0
6.919218750E-1;1.449555039E0;5.331494808E0;7.621232510E0;9.413247668E0
6.939218750E-1;1.434308887E0;5.342460155E0;7.621423721E0;9.417283156E0
6.959218750E-1;1.426848412E0;5.363270283E0;7.613542557E0;9.421602559E0
6.979218750E-1;1.429118156E0;5.384367943E0;7.602069378E0;9.424715151E0
6.999218750E-1;1.447543979E0;5.399049282E0;7.586037636E0;9.423008210E0
7.019218750E-1;1.471074104E0;5.409890175E0;7.565390110E0;9.416267745E0
7.039218750E-1;1.507006407E0;5.420319557E0;7.554165840E0;9.418935925E0
7.059218750E-1;1.554210424E0;5.433018208E0;7.559538364E0;9.438213664E0
7.079218750E-1;1.613806844E0;5.462275505E0;7.590529442E0;9.489834742E0
7.099218750E-1;1.660110712E0;5.476324558E0;7.603275776E0;9.516086421E0
7.119218750E-1;1.694271207E0;5.458214760E0;7.566051006E0;9.481971900E0
7.139218750E-1;1.716096640E0;5.379962921E0;7.428623676E0;9.331314936E0
7.160687500E-1;1.736275077E0;5.285583496E0;7.197267056E0;9.096850944E0
7.182984370E-1;1.746407390E0;5.228419304E0;6.963210106E0;8.881024838E0
7.201078120E-1;1.733181715E0;5.239394665E0;6.780599594E0;8.742522872E0
7.219218750E-1;1.719917893E0;5.343063354E0;6.698181629E0;8.739112124E0
7.239218750E-1;1.668739438E0;5.482272148E0;6.667756081E0;8.791983301E0
7.259218750E-1;1.511593580E0;5.550017834E0;6.738720417E0;8.859907785E0
7.279218750E-1;1.257472992E0;5.511116982E0;6.996882439E0;8.994999309E0
7.299218750E-1;9.596247673E-1;5.412208080E0;7.409872055E0;9.226000210E0
7.319218750E-1;6.823666096E-1;5.312800884E0;7.938023567E0;9.576204654E0
7.339218750E-1;4.623395205E-1;5.245839119E0;8.554760933E0;1.004572150E1
7.359218750E-1;3.743669391E-1;5.206555843E0;9.114380836E0;1.050334768E1
7.379218750E-1;4.250953197E-1;5.149439335E0;9.497328758E0;1.081187704E1
7.399218750E-1;5.728175640E-1;5.056956291E0;9.699122429E0;1.095325992E1
7.419218750E-1;7.777994871E-1;4.950031281E0;9.756965637E0;1.096841648E1
7.439218750E-1;9.805405140E-1;4.832408905E0;9.756085396E0;1.093136944E1
7.459218750E-1;1.129641891E0;4.714326859E0;9.770699501E0;1.090722409E1
7.479218750E-1;1.218935966E0;4.617821217E0;9.815642357E0;1.091590182E1
7.499218750E-1;1.284441233E0;4.549222469E0;9.867903709E0;1.094169722E1
7.519218750E-1;1.396470785E0;4.510484219E0;9.902734756E0;1.097081374E1
7.539218750E-1;1.552534461E0;4.482520103E0;9.906661034E0;1.098386465E1
7.560968750E-1;1.717734337E0;4.457429409E0;9.874588013E0;1.096935625E1
7.579218750E-1;1.845106006E0;4.479359627E0;9.824596405E0;1.095407565E1
7.599218750E-1;1.914547324E0;4.557908535E0;9.775448799E0;1.095442472E1
7.619218750E-1;1.924114466E0;4.675866127E0;9.728637695E0;1.096413845E1
7.639218750E-1;1.907642484E0;4.806015015E0;9.669365883E0;1.096510450E1
7.659218750E-1;1.884782553E0;4.938261032E0;9.588471413E0;1.094886347E1
7.679218750E-1;1.874114037E0;5.068017483E0;9.483442307E0;1.091479650E1
7.699218750E-1;1.875224948E0;5.180305481E0;9.362803459E0;1.086343049E1
7.719218750E-1;1.894847870E0;5.272846222E0;9.238601685E0;1.080486542E1
7.739218750E-1;1.932168722E0;5.339328289E0;9.115386963E0;1.073927288E1
7.759218750E-1;1.974507689E0;5.389664173E0;9.001996994E0;1.067628729E1
7.779218750E-1;2.018656731E0;5.421411037E0;8.901115417E0;1.061586211E1
7.799218750E-1;2.032035589E0;5.443322659E0;8.799639702E0;1.054478967E1
7.819218750E-1;2.020409346E0;5.465579510E0;8.708363533E0;1.047808230E1
7.839218750E-1;1.984467626E0;5.477425575E0;8.612604141E0;1.039794464E1
7.859218750E-1;1.928012371E0;5.481524944E0;8.511683464E0;1.030597413E1
7.879218750E-1;1.861558795E0;5.470482826E0;8.411624908E0;1.020524459E1
7.899218750E-1;1.783661127E0;5.448915482E0;8.314680099E0;1.009980357E1
7.919218750E-1;1.710331559E0;5.424878120E0;8.229656219E0;1.000408807E1
7.939218750E-1;1.651596904E0;5.405149937E0;8.154095650E0;9.921325216E0
7.959218750E-1;1.584932685E0;5.390544891E0;8.081187248E0;9.842538960E0
7.979218750E-1;1.534261942E0;5.387768269E0;8.015059471E0;9.778710802E0
7.999218750E-1;1.476772308E0;5.391560078E0;7.962645531E0;9.729003051E0
8.019218750E-1;1.403701305E0;5.397851944E0;7.923897743E0;9.689960702E0
8.039218750E-1;1.323016763E0;5.419332981E0;7.879490376E0;9.654320892E0
8.059218750E-1;1.251899242E0;5.443255901E0;7.840359211E0;9.626396994E0
8.079218750E-1;1.182285547E0;5.457937241E0;7.807568550E0;9.599218963E0
8.099218750E-1;1.111426711E0;5.468117237E0;7.777909279E0;9.572431677E0
8.119218750E-1;1.036689281E0;5.468586445E0;7.754110813E0;9.544967097E0
8.139218750E-1;9.636086822E-1;5.455600739E0;7.732783318E0;9.512521167E0
8.159218750E-1;8.874348402E-1;5.423364639E0;7.725638866E0;9.480818556E0
8.179218750E-1;7.923562527E-1;5.383946896E0;7.726213455E0;9.450348510E0
8.199218750E-1;7.052264810E-1;5.336196899E0;7.743758202E0;9.430701608E0
8.219218750E-1;6.221476793E-1;5.281091690E0;7.785206318E0;9.427960256E0
8.239218750E-1;5.360234380E-1;5.229836941E0;7.836519241E0;9.436606878E0
8.259218750E-1;4.430230856E-1;5.187315941E0;7.890963554E0;9.453667116E0
8.279218750E-1;3.465750813E-1;5.151891232E0;7.966840267E0;9.493821222E0
8.299218750E-1;2.624427974E-1;5.129193783E0;8.061047554E0;9.558137515E0
8.319218750E-1;1.781094521E-1;5.118084908E0;8.155053139E0;9.629714834E0
8.339218750E-1;1.068867445E-1;5.116016388E0;8.262016296E0;9.718331222E0
8.360968750E-1;5.944324285E-2;5.110011578E0;8.379869461E0;9.815190472E0
8.379218750E-1;1.045787334E-2;5.107061863E0;8.497777939E0;9.914354247E0
8.399218750E-1;-2.866338380E-2;5.106027603E0;8.624192238E0;1.002242641E1
8.419218750E-1;-3.521391749E-2;5.130199909E0;8.766809464E0;1.015761484E1
8.439218750E-1;-4.061523825E-2;5.168143272E0;8.922624588E0;1.031138129E1
8.459218750E-1;-4.049073905E-2;5.196116924E0;9.067531586E0;1.045090425E1
8.479218750E-1;-2.532107756E-2;5.222491264E0;9.212198257E0;1.058960117E1
8.499218750E-1;-4.922478460E-3;5.245054245E0;9.333431244E0;1.070623916E1
8.519218750E-1;2.229480632E-2;5.273707867E0;9.435279846E0;1.080911641E1
8.539218750E-1;6.186617166E-2;5.303721905E0;9.507747650E0;1.088717405E1
8.559218750E-1;1.155441776E-1;5.333725929E0;9.561139107E0;1.094885217E1
8.579218750E-1;1.747384220E-1;5.366143703E0;9.592751503E0;1.099303930E1
8.599218750E-1;2.380506843E-1;5.424447060E0;9.608631134E0;1.103662477E1
8.619218750E-1;3.272586465E-1;5.525482655E0;9.612174034E0;1.109197667E1
8.639218750E-1;4.307264686E-1;5.633154392E0;9.585808754E0;1.112680022E1
8.659218750E-1;5.481955409E-1;5.711607456E0;9.450373650E0;1.105588261E1
8.679218750E-1;6.683270335E-1;5.764395237E0;9.326986313E0;1.098487993E1
8.699218750E-1;7.527753115E-1;5.795366287E0;9.271153450E0;1.095934429E1
8.719218750E-1;8.066065907E-1;5.814836025E0;9.251090050E0;1.095653227E1
8.739218750E-1;8.409489989E-1;5.830187321E0;9.256481171E0;1.097181494E1
8.759218750E-1;8.543469310E-1;5.832993507E0;9.272771835E0;1.098808534E1
8.779218750E-1;8.490030766E-1;5.828683853E0;9.292346954E0;1.100191227E1
8.799218750E-1;8.463981748E-1;5.808562756E0;9.309164047E0;1.100528629E1
8.819218750E-1;8.594513535E-1;5.777524948E0;9.319928169E0;1.099906870E1
8.839218750E-1;8.820813894E-1;5.738786697E0;9.313290596E0;1.097493153E1
8.859218750E-1;9.088293910E-1;5.686161995E0;9.307517052E0;1.094478336E1
8.879218750E-1;9.409212470E-1;5.632205963E0;9.296895981E0;1.091051565E1
8.899218750E-1;9.656773210E-1;5.578260422E0;9.288899422E0;1.087810528E1
8.919218750E-1;9.817951322E-1;5.526047230E0;9.299720764E0;1.086213266E1
8.939218750E-1;9.695367217E-1;5.479417801E0;9.327455521E0;1.086118996E1
8.959218750E-1;9.287204146E-1;5.436418056E0;9.366806984E0;1.086987746E1
8.979218750E-1;8.767088056E-1;5.397699356E0;9.414058685E0;1.088706928E1
8.999218750E-1;8.273882270E-1;5.350619793E0;9.480923653E0;1.091794929E1
9.019218750E-1;7.809407115E-1;5.296989441E0;9.552280426E0;1.095052633E1
9.039218750E-1;7.451425791E-1;5.230181694E0;9.632208824E0;1.098587661E1
9.059218750E-1;7.029759288E-1;5.164513111E0;9.707769394E0;1.101849161E1
9.079218750E-1;6.723493338E-1;5.095359325E0;9.783426285E0;1.105125197E1
9.099218750E-1;6.507823467E-1;5.027880669E0;9.844095230E0;1.107290895E1
9.119218750E-1;6.494607329E-1;4.960757256E0;9.905157089E0;1.109698377E1
9.139218750E-1;6.437146664E-1;4.892416954E0;9.964543343E0;1.111945306E1
9.160968750E-1;6.268307567E-1;4.832542896E0;1.001889133E1;1.114112073E1
9.179218750E-1;5.982248187E-1;4.790146351E0;1.007505989E1;1.117184885E1
9.199218750E-1;5.631545186E-1;4.771395206E0;1.013264465E1;1.121400209E1
9.219218750E-1;5.035389066E-1;4.755114079E0;1.020255566E1;1.126751096E1
9.239218750E-1;4.607593417E-1;4.731823921E0;1.027066612E1;1.131764284E1
9.259218750E-1;4.345667660E-1;4.699875355E0;1.033207226E1;1.135911061E1
9.279218750E-1;4.139766097E-1;4.669947624E0;1.038357639E1;1.139291210E1
9.299218750E-1;4.045338929E-1;4.639167786E0;1.043827915E1;1.142992551E1
9.319218750E-1;3.912796080E-1;4.599864960E0;1.049881363E1;1.146895571E1
9.339218750E-1;3.291931450E-1;4.567523956E0;1.057060146E1;1.151990705E1
9.359218750E-1;2.209848166E-1;4.524322987E0;1.064276314E1;1.156662181E1
9.379218750E-1;1.238568425E-1;4.507371902E0;1.064643097E1;1.156193039E1
9.399218750E-1;6.144479290E-2;4.506443024E0;1.061540222E1;1.153250053E1
9.419218750E-1;1.340753026E-2;4.522876740E0;1.061810207E1;1.154126013E1
9.439218750E-1;-5.978800729E-2;4.541992188E0;1.062677956E1;1.155689021E1
9.459218750E-1;-1.254274398E-1;4.535795689E0;1.063527298E1;1.156279404E1
9.479218750E-1;-1.606892347E-1;4.492249966E0;1.064491844E1;1.155510361E1
9.499218750E-1;-1.570500433E-1;4.443236351E0;1.062935543E1;1.152172777E1
9.519218750E-1;-1.260882467E-1;4.394729614E0;1.060059547E1;1.147615663E1
9.539218750E-1;-9.097966552E-2;4.366372585E0;1.055873680E1;1.142630341E1
9.559218750E-1;-5.638823658E-2;4.357571602E0;1.050997066E1;1.137765764E1
9.579218750E-1;-4.609316960E-2;4.384865761E0;1.045949078E1;1.134152193E1
9.599218750E-1;-6.811982393E-2;4.437671661E0;1.040193462E1;1.130919157E1
9.619218750E-1;-1.182735637E-1;4.495343685E0;1.033692741E1;1.127271803E1
9.639218750E-1;-1.689157188E-1;4.545506954E0;1.025846481E1;1.122168732E1
9.660984370E-1;-2.241068631E-1;4.582664967E0;1.016319466E1;1.115085502E1
9.679906250E-1;-2.616383731E-1;4.611347198E0;1.004539108E1;1.105634929E1
9.699218750E-1;-2.951188684E-1;4.625597477E0;9.903117180E0;1.093411986E1
9.719218750E-1;-3.239833713E-1;4.623424053E0;9.750185966E0;1.079570014E1
9.739218750E-1;-3.568413854E-1;4.616518974E0;9.591104507E0;1.065029900E1
9.759218750E-1;-3.970448375E-1;4.611289978E0;9.432618141E0;1.050694651E1
9.779218750E-1;-4.417493641E-1;4.607918739E0;9.285623550E0;1.037549335E1
9.799218750E-1;-4.920275807E-1;4.612726688E0;9.141090393E0;1.025079861E1
9.819218750E-1;-5.367034078E-1;4.609575748E0;9.003883362E0;1.012946962E1
9.839218750E-1;-5.685654283E-1;4.600516319E0;8.876195908E0;1.001373411E1
9.859218750E-1;-5.861771703E-1;4.602086544E0;8.773101807E0;9.924218838E0
9.879218750E-1;-6.225020289E-1;4.606654644E0;8.677362442E0;9.844053776E0
9.899218750E-1;-6.428910494E-1;4.606789112E0;8.599197388E0;9.776605267E0
9.919218750E-1;-6.458694339E-1;4.601847172E0;8.537723541E0;9.720435586E0
9.939218750E-1;-6.490201950E-1;4.596024513E0;8.480665207E0;9.667799692E0
9.960968750E-1;-6.425750256E-1;4.599557877E0;8.441840172E0;9.635014313E0
9.979218750E-1;-6.280373931E-1;4.604068756E0;8.425588608E0;9.621976069E0
9.999218750E-1;-6.252697110E-1;4.602374077E0;8.436697006E0;9.630714705E0
1.001921875E0;-6.193704009E-1;4.600630760E0;8.449511528E0;9.640729648E0
1.003921875E0;-6.026971936E-1;4.602307320E0;8.478912354E0;9.666252183E0
1.005921875E0;-5.958210230E-1;4.596129894E0;8.519134521E0;9.698199095E0
1.007921875E0;-5.939056873E-1;4.591456413E0;8.562517166E0;9.734007201E0
1.009921875E0;-5.847981572E-1;4.587347984E0;8.596476555E0;9.761411761E0
1.011921875E0;-5.810727477E-1;4.577934265E0;8.623723030E0;9.780783536E0
1.013921875E0;-5.837063789E-1;4.561327457E0;8.641488075E0;9.788857822E0
1.015921875E0;-6.007243395E-1;4.546761036E0;8.642100334E0;9.783649822E0
1.017921875E0;-6.292824149E-1;4.533391953E0;8.638892174E0;9.776405113E0
1.019921875E0;-6.484456062E-1;4.512725353E0;8.635282516E0;9.764900202E0
1.021921875E0;-6.887447834E-1;4.497230053E0;8.622735977E0;9.749411431E0
1.023921875E0;-7.339281440E-1;4.494012356E0;8.611905098E0;9.741648063E0
1.025921875E0;-7.849916816E-1;4.482922554E0;8.600173950E0;9.730148947E0
1.027921875E0;-8.379514217E-1;4.456988335E0;8.586507797E0;9.710562484E0
1.029921875E0;-8.778197169E-1;4.429455280E0;8.583232880E0;9.698583825E0
1.031921875E0;-9.015414715E-1;4.388437271E0;8.591583252E0;9.689502644E0
1.033921875E0;-9.009955525E-1;4.346117496E0;8.605834007E0;9.683021700E0
1.035921875E0;-8.986300826E-1;4.303932190E0;8.628157616E0;9.683825286E0
1.037921875E0;-8.912272453E-1;4.269953728E0;8.664979935E0;9.700962226E0
1.039921875E0;-8.770822883E-1;4.240849495E0;8.728943825E0;9.744154046E0
1.041921875E0;-8.541458249E-1;4.213258743E0;8.814712524E0;9.807154083E0
1.043921875E0;-8.162791133E-1;4.200789452E0;8.925574303E0;9.898425139E0
1.045921875E0;-7.602643967E-1;4.195618153E0;9.053530693E0;1.000737886E1
1.047921875E0;-7.006679177E-1;4.196863174E0;9.182989120E0;1.012086386E1
1.049921875E0;-6.567103863E-1;4.198931694E0;9.328001022E0;1.025055603E1
1.051921875E0;-6.130880117E-1;4.201239586E0;9.465313911E0;1.037393168E1
1.053921875E0;-5.661137700E-1;4.197121620E0;9.581709862E0;1.047594762E1
1.055921875E0;-5.117749572E-1;4.183321953E0;9.681194305E0;1.055876978E1
1.057921875E0;-4.586715698E-1;4.159954071E0;9.759360313E0;1.061888465E1
1.059921875E0;-4.137180448E-1;4.147303104E0;9.808891296E0;1.065765613E1
1.061921875E0;-3.845949769E-1;4.132085323E0;9.837765694E0;1.067725041E1
1.063921875E0;-3.499939740E-1;4.095712662E0;9.867539406E0;1.068951317E1
1.065921875E0;-3.072909713E-1;4.035905838E0;9.879117966E0;1.067613860E1
1.067921875E0;-2.635345757E-1;3.970046043E0;9.877288818E0;1.064854687E1
1.069921875E0;-2.185523063E-1;3.908907652E0;9.874932289E0;1.062269325E1
1.071921875E0;-1.831659973E-1;3.852423906E0;9.867156029E0;1.059412516E1
1.073921875E0;-1.667992473E-1;3.794426441E0;9.847399712E0;1.055446707E1
1.076096875E0;-1.718653738E-1;3.750612736E0;9.825267792E0;1.051819950E1
1.077921875E0;-2.063993365E-1;3.717199326E0;9.792006493E0;1.047585618E1
1.079921875E0;-2.631706595E-1;3.673959970E0;9.758603096E0;1.043060761E1
1.081921875E0;-3.539587855E-1;3.644185781E0;9.717863083E0;1.038471183E1
1.083921875E0;-4.669459462E-1;3.613128185E0;9.671032906E0;1.033448650E1
1.085921875E0;-5.990483761E-1;3.579666853E0;9.625926018E0;1.028743532E1
1.087921875E0;-7.388123274E-1;3.541177511E0;9.569920540E0;1.023079474E1
1.089921875E0;-8.716234565E-1;3.494404316E0;9.497712135E0;1.015761413E1
1.091921875E0;-9.871006608E-1;3.430938959E0;9.425407410E0;1.007888956E1
1.093921875E0;-1.091066360E0;3.368172646E0;9.353744507E0;1.000137736E1
1.095921875E0;-1.186192870E0;3.325977087E0;9.275453568E0;9.924878639E0
1.097921875E0;-1.261332512E0;3.285524607E0;9.187040329E0;9.838055786E0
1.099921875E0;-1.341605306E0;3.252178192E0;9.083878517E0;9.741325203E0
1.101921875E0;-1.425593853E0;3.237707853E0;8.985832214E0;9.657134697E0
1.103921875E0;-1.510904074E0;3.238531351E0;8.874932289E0;9.567410285E0
1.105921875E0;-1.589452982E0;3.253442287E0;8.752616882E0;9.472040424E0
1.107921875E0;-1.656797171E0;3.284145594E0;8.610296249E0;9.363107959E0
1.109921875E0;-1.711490393E0;3.329664230E0;8.451943398E0;9.243982391E0
1.111921875E0;-1.759843588E0;3.385889530E0;8.273796082E0;9.111366471E0
1.113921875E0;-1.801426172E0;3.453329563E0;8.076896667E0;8.966988408E0
1.115921875E0;-1.856329918E0;3.540641308E0;7.833415985E0;8.794572624E0
1.117921875E0;-1.860313892E0;3.680941343E0;7.617267609E0;8.662151163E0
1.119921875E0;-1.791217208E0;3.868723392E0;7.430682659E0;8.566826983E0
1.121921875E0;-1.682692885E0;4.004216194E0;7.253664970E0;8.454635307E0
1.123921875E0;-1.558606148E0;4.099486351E0;7.105971813E0;8.350441717E0
1.125921875E0;-1.428342462E0;4.174951553E0;7.012080669E0;8.284905429E0
1.127923437E0;-1.279949784E0;4.210309029E0;6.932880402E0;8.211565273E0
1.129921875E0;-1.129660964E0;4.234289646E0;6.846296310E0;8.128783173E0
1.131921875E0;-1.026288986E0;4.253739834E0;6.750968933E0;8.045070117E0
1.133921875E0;-9.897821546E-1;4.287967205E0;6.669192314E0;7.990272685E0
1.135921875E0;-1.021759152E0;4.315730572E0;6.611329556E0;7.961105490E0
1.137923437E0;-1.094964266E0;4.336771011E0;6.591332912E0;7.965688866E0
1.139921875E0;-1.164961100E0;4.347582817E0;6.614633083E0;8.000748811E0
1.141921875E0;-1.223954201E0;4.349009991E0;6.668982029E0;8.055263688E0
1.143921875E0;-1.249524236E0;4.347267151E0;6.752998829E0;8.127917057E0
1.145921875E0;-1.233262777E0;4.342852116E0;6.880054474E0;8.229000616E0
1.147923437E0;-1.202253222E0;4.346107960E0;7.035879135E0;8.356893108E0
1.149921875E0;-1.195875049E0;4.347535133E0;7.214735508E0;8.507854449E0
1.151921875E0;-1.197091341E0;4.363777161E0;7.392097473E0;8.667103544E0
1.153771875E0;-1.215622425E0;4.380038738E0;7.561061382E0;8.822251779E0
1.156287500E0;-1.230533481E0;4.382174492E0;7.639093399E0;8.892323312E0
1.157945312E0;-1.291901588E0;4.377510548E0;7.844649792E0;9.075799616E0
1.159771875E0;-1.341078639E0;4.350034714E0;7.942543983E0;9.154523410E0
1.161921875E0;-1.357972026E0;4.331570625E0;7.984797001E0;9.184964630E0
1.163921875E0;-1.394249082E0;4.287852764E0;8.060070038E0;9.235493535E0
1.165921875E0;-1.427039981E0;4.237315655E0;8.122510910E0;9.271810532E0
1.167921875E0;-1.455214977E0;4.192649364E0;8.179675102E0;9.306075655E0
1.169921875E0;-1.478381276E0;4.151134014E0;8.214170456E0;9.321487064E0
1.171921875E0;-1.502524376E0;4.122479916E0;8.237011909E0;9.332780151E0
1.173921875E0;-1.528937221E0;4.108363628E0;8.273959160E0;9.363476967E0
1.175921875E0;-1.561680317E0;4.108431339E0;8.306730270E0;9.397862590E0
1.177921875E0;-1.589395642E0;4.111581326E0;8.345707893E0;9.438332466E0
1.179921875E0;-1.596836805E0;4.093941212E0;8.390164375E0;9.471277668E0
1.181921875E0;-1.590113878E0;4.064779758E0;8.424956322E0;9.488455388E0
1.183921875E0;-1.588456988E0;4.036174297E0;8.453255653E0;9.501127812E0
1.185921875E0;-1.591272593E0;4.001620770E0;8.464556694E0;9.497043607E0
1.187921875E0;-1.604038596E0;3.939955711E0;8.440787315E0;9.452146916E0
1.189921875E0;-1.679206967E0;3.801427364E0;8.324448586E0;9.304140492E0
1.191921875E0;-1.763166785E0;3.679485798E0;8.206422806E0;9.164755759E0
1.193921875E0;-1.828241110E0;3.603800297E0;8.111583710E0;9.062429719E0
1.195921875E0;-1.861951590E0;3.566872120E0;8.020623207E0;8.973284631E0
1.197921875E0;-1.870235443E0;3.558339119E0;7.943118572E0;8.902398022E0
1.199921875E0;-1.849396348E0;3.578421593E0;7.904839993E0;8.871970652E0
1.201921875E0;-1.793199539E0;3.622628212E0;7.907310963E0;8.880572415E0
1.203921875E0;-1.698111415E0;3.666719913E0;7.938818455E0;8.908044441E0
1.205921875E0;-1.579167604E0;3.716117144E0;7.990504265E0;8.952734518E0
1.207921875E0;-1.441893578E0;3.766031504E0;8.048262596E0;9.002032059E0
1.209921875E0;-1.296929479E0;3.809960127E0;8.111057281E0;9.054671306E0
1.211921875E0;-1.138797283E0;3.838240385E0;8.163634300E0;9.092517445E0
1.213921875E0;-9.735973477E-1;3.859108448E0;8.219064713E0;9.132011529E0
1.216068750E0;-8.059744835E-1;3.881757498E0;8.294913292E0;9.193651215E0
1.218300000E0;-6.374034882E-1;3.898239374E0;8.395756721E0;9.278538913E0
1.220110937E0;-4.687655270E-1;3.910162449E0;8.536430359E0;9.401050727E0
1.221921875E0;-3.095319867E-1;3.922296047E0;8.703085899E0;9.551121427E0
1.223921875E0;-1.702564657E-1;3.942800045E0;8.902475357E0;9.738004259E0
1.225921875E0;-3.625778854E-2;3.967335939E0;9.110405922E0;9.936828727E0
1.227921875E0;9.820057452E-2;3.994236946E0;9.313923836E0;1.013472986E1
1.229921875E0;2.250358164E-1;4.011054039E0;9.494896889E0;1.030981390E1
1.231921875E0;3.345561922E-1;4.021377563E0;9.642063141E0;1.045240580E1
1.233921875E0;4.432337582E-1;4.029135227E0;9.755748749E0;1.056432774E1
1.236096875E0;5.588161945E-1;4.045473099E0;9.837745667E0;1.065173075E1
1.237921875E0;6.664116979E-1;4.059924126E0;9.894067764E0;1.071539385E1
1.239921875E0;7.563091516E-1;4.065900326E0;9.932537079E0;1.075912830E1
1.241921875E0;8.100446463E-1;4.067327499E0;9.957906723E0;1.078699363E1
1.243921875E0;8.358445168E-1;4.051611900E0;9.973401070E0;1.079735727E1
1.245921875E0;8.248791099E-1;4.021847248E0;9.985822678E0;1.079686692E1
1.247921875E0;7.821952701E-1;3.992752790E0;9.986062050E0;1.078310436E1
1.249921875E0;7.053222656E-1;3.960306406E0;9.970212936E0;1.075112331E1
1.251921875E0;5.906495452E-1;3.923502922E0;9.927968979E0;1.069145968E1
1.253921875E0;4.536054730E-1;3.885071039E0;9.865374565E0;1.061249972E1
1.255921875E0;3.159579933E-1;3.842578888E0;9.778916359E0;1.051153876E1
1.257921875E0;1.758014411E-1;3.804578066E0;9.672450066E0;1.039528791E1
1.259921875E0;5.305550992E-2;3.777513981E0;9.553755760E0;1.027359119E1
1.261921875E0;-5.280651152E-2;3.749348640E0;9.431497574E0;1.014955912E1
1.263921875E0;-1.495226920E-1;3.714134693E0;9.309595108E0;1.002425631E1
1.265921875E0;-2.377537936E-1;3.691274881E0;9.189137459E0;9.905669304E0
1.267921875E0;-3.260998428E-1;3.680749893E0;9.074293137E0;9.797808776E0
1.269921875E0;-4.162463248E-1;3.677829027E0;8.970881462E0;9.704452667E0
1.271921875E0;-5.086145997E-1;3.691313267E0;8.867931366E0;9.618975473E0
1.273921875E0;-5.928522348E-1;3.707401991E0;8.755739212E0;9.526766106E0
1.275921875E0;-6.745423675E-1;3.737425566E0;8.636287689E0;9.434448702E0
1.277921875E0;-7.369065285E-1;3.757603645E0;8.510630608E0;9.332387140E0
1.279921875E0;-8.028429151E-1;3.769909859E0;8.386858940E0;9.230177678E0
1.281921875E0;-8.508418202E-1;3.790787458E0;8.264458656E0;9.132101524E0
1.283921875E0;-8.839679956E-1;3.818837881E0;8.147094727E0;9.041021771E0
1.285921875E0;-9.120376110E-1;3.838824749E0;8.040227890E0;8.956207489E0
1.287921875E0;-9.351655841E-1;3.868283033E0;7.945618153E0;8.886562672E0
1.289921875E0;-9.572880268E-1;3.898756266E0;7.859675884E0;8.825599458E0
1.291921875E0;-9.770929217E-1;3.933587074E0;7.794572830E0;8.785396033E0
1.293921875E0;-9.955377579E-1;3.972018957E0;7.748680592E0;8.764136063E0
1.295921875E0;-9.997324347E-1;4.003411770E0;7.709511280E0;8.744331588E0
1.297921875E0;-9.943885207E-1;4.034364223E0;7.680168152E0;8.732118074E0
1.299921875E0;-9.833848476E-1;4.067365646E0;7.669049263E0;8.736408052E0
1.301921875E0;-9.598929286E-1;4.089334488E0;7.662010193E0;8.737874523E0
1.303921875E0;-9.238841534E-1;4.111792564E0;7.649062634E0;8.733187230E0
1.305921875E0;-8.804628849E-1;4.138646126E0;7.643095970E0;8.736161781E0
1.307921875E0;-8.248408437E-1;4.163861275E0;7.634716988E0;8.735388178E0
1.309921875E0;-7.589715123E-1;4.189872265E0;7.620820999E0;8.729718212E0
1.311921875E0;-7.010126710E-1;4.218516350E0;7.585530281E0;8.707902652E0
1.313921875E0;-6.468750238E-1;4.239853382E0;7.542961597E0;8.677042910E0
1.316098437E0;-5.963094234E-1;4.269541740E0;7.490327358E0;8.642313089E0
1.318323437E0;-5.447574854E-1;4.304898739E0;7.442098141E0;8.614739613E0
1.319985937E0;-5.120814443E-1;4.339327812E0;7.392068863E0;8.586889736E0
1.321921875E0;-4.932725728E-1;4.370777607E0;7.347039223E0;8.563060204E0
1.323921875E0;-4.744637311E-1;4.408567905E0;7.292173386E0;8.534423208E0
1.325921875E0;-4.568040967E-1;4.448005199E0;7.231207371E0;8.501986843E0
1.327921875E0;-4.396616220E-1;4.485307217E0;7.164782524E0;8.464360093E0
1.329921875E0;-4.175679386E-1;4.518107414E0;7.102897644E0;8.428452559E0
1.331921875E0;-3.895366192E-1;4.540919304E0;7.042573452E0;8.388654703E0
1.333921875E0;-3.503195941E-1;4.554863453E0;6.997456551E0;8.356668180E0
1.335921875E0;-3.046478033E-1;4.563080311E0;6.956276417E0;8.324920047E0
1.337921875E0;-2.477902919E-1;4.575060844E0;6.932899475E0;8.310094879E0
1.339921875E0;-1.826105565E-1;4.590919971E0;6.917232037E0;8.304094884E0
1.341921875E0;-1.018780693E-1;4.603858471E0;6.912165642E0;8.305656255E0
1.343921875E0;-7.967903279E-3;4.616614819E0;6.927536488E0;8.324899859E0
1.345921875E0;8.125920594E-2;4.641667366E0;6.959513187E0;8.365793615E0
1.347921875E0;1.722005606E-1;4.672619820E0;7.009446621E0;8.425875085E0
1.349921875E0;2.483265996E-1;4.709289551E0;7.059256077E0;8.489532998E0
1.351921875E0;3.274406195E-1;4.749377728E0;7.102696419E0;8.550561536E0
1.353921875E0;4.105960131E-1;4.779822826E0;7.145830154E0;8.606868416E0
1.355921875E0;4.849407673E-1;4.810478210E0;7.183887959E0;8.659336832E0
1.357921875E0;5.463089347E-1;4.847807884E0;7.214802265E0;8.709366593E0
1.359921875E0;5.976597667E-1;4.886010170E0;7.230345726E0;8.746896129E0
1.361921875E0;6.358329654E-1;4.917661667E0;7.238955021E0;8.774403092E0
1.363921875E0;6.606368423E-1;4.947196484E0;7.237489700E0;8.791612551E0
1.365921875E0;6.643430591E-1;4.977277279E0;7.223680019E0;8.797510661E0
1.367921875E0;6.480529308E-1;4.995482922E0;7.205857277E0;8.791996435E0
1.369921875E0;5.962328315E-1;5.009014606E0;7.179482937E0;8.774434236E0
1.371921875E0;5.263125896E-1;5.019185066E0;7.144767284E0;8.747395225E0
1.373921875E0;4.444691837E-1;5.018466949E0;7.102629185E0;8.708036789E0
1.375921875E0;3.530777395E-1;4.994898319E0;7.053663254E0;8.650308573E0
1.377921875E0;2.550878227E-1;4.970946789E0;6.989938736E0;8.581062015E0
1.379921875E0;1.517061889E-1;4.933386803E0;6.910097122E0;8.491805600E0
1.381921875E0;4.553771764E-2;4.886182785E0;6.828991413E0;8.397141157E0
1.383921875E0;-5.453991145E-2;4.844207287E0;6.752405167E0;8.310493028E0
1.385921875E0;-1.555081904E-1;4.803726196E0;6.683548450E0;8.232240768E0
1.387921875E0;-2.528277040E-1;4.761415958E0;6.620465755E0;8.158772616E0
1.389921875E0;-3.477817476E-1;4.714432240E0;6.569430828E0;8.093469274E0
1.391921875E0;-4.481370747E-1;4.673271179E0;6.533086777E0;8.044968190E0
1.393921875E0;-5.527637601E-1;4.635011673E0;6.517802238E0;8.016896345E0
1.396096875E0;-6.354594231E-1;4.604136467E0;6.528049469E0;8.013570437E0
1.397921875E0;-7.229722738E-1;4.580385685E0;6.560447693E0;8.033809549E0
1.399921875E0;-8.005157113E-1;4.561117172E0;6.600747108E0;8.063155564E0
1.401921875E0;-8.674097061E-1;4.541580677E0;6.650383949E0;8.099750695E0
1.403921875E0;-9.085516334E-1;4.528278351E0;6.721223354E0;8.155097441E0
1.405921875E0;-9.288161397E-1;4.512754440E0;6.795395374E0;8.210057878E0
1.407921875E0;-9.287299514E-1;4.502574444E0;6.879384041E0;8.274154986E0
1.409921875E0;-9.144796729E-1;4.509881496E0;6.975286484E0;8.356430202E0
1.411921875E0;-8.745731115E-1;4.522790432E0;7.077183723E0;8.444349642E0
1.413921875E0;-8.095849752E-1;4.546282768E0;7.183160782E0;8.539432865E0
1.415921875E0;-7.330757976E-1;4.580385685E0;7.289817333E0;8.640530649E0
1.417921875E0;-6.502652168E-1;4.624505997E0;7.392423153E0;8.743959094E0
1.419921875E0;-5.714097023E-1;4.672504902E0;7.490757942E0;8.847048415E0
1.421921875E0;-4.825465679E-1;4.731689453E0;7.580243587E0;8.948845128E0
1.423921875E0;-3.920936286E-1;4.799033642E0;7.654386997E0;9.042903384E0
1.425921875E0;-3.031442463E-1;4.868264198E0;7.724317551E0;9.135478880E0
1.427921875E0;-2.245378047E-1;4.918897152E0;7.783176422E0;9.209983802E0
1.429921875E0;-1.575576365E-1;4.963764191E0;7.833195686E0;9.274844150E0
1.431921875E0;-1.024239510E-1;5.015976906E0;7.869741440E0;9.332917299E0
1.433921875E0;-4.532702640E-2;5.061102867E0;7.888300896E0;9.372412058E0
1.435921875E0;-3.964798059E-3;5.096431732E0;7.891796589E0;9.394364562E0
1.437921875E0;2.278322354E-2;5.135256290E0;7.885801315E0;9.410485568E0
1.439921875E0;5.387911573E-2;5.164446354E0;7.865824223E0;9.409867151E0
1.441921875E0;7.622180134E-2;5.178964615E0;7.834153652E0;9.391562580E0
1.443921875E0;9.467631578E-2;5.218181610E0;7.798776627E0;9.383991677E0
1.445921875E0;1.092522144E-1;5.245753288E0;7.762174129E0;9.369162760E0
1.447921875E0;1.255615205E-1;5.273277283E0;7.733855247E0;9.361396049E0
1.449921875E0;1.300817728E-1;5.306642532E0;7.711349964E0;9.361746338E0
1.451921875E0;1.317289770E-1;5.329550266E0;7.698057652E0;9.363842703E0
1.453921875E0;1.309149414E-1;5.367628098E0;7.704186440E0;9.390583518E0
1.455921875E0;1.323514730E-1;5.403052330E0;7.719595909E0;9.423515925E0
1.457921875E0;1.254465878E-1;5.434684753E0;7.746851444E0;9.463891510E0
1.459921875E0;1.166550815E-1;5.471545696E0;7.783041954E0;9.514576332E0
1.461921875E0;1.088978723E-1;5.490594387E0;7.810651779E0;9.548024229E0
1.463921875E0;9.888052940E-2;5.515666008E0;7.840780735E0;9.586980307E0
1.465921875E0;8.785762638E-2;5.533967495E0;7.861868858E0;9.614650131E0
1.467921875E0;6.984364986E-2;5.544626236E0;7.881060600E0;9.636330962E0
1.469921875E0;5.008669943E-2;5.551923752E0;7.881721497E0;9.640949112E0
1.471921875E0;1.797566563E-2;5.557976723E0;7.862002850E0;9.628214641E0
1.473921875E0;-2.633621730E-2;5.556664467E0;7.831950665E0;9.602950838E0
1.476096875E0;-7.729440928E-2;5.550085068E0;7.796430588E0;9.570462298E0
1.477921875E0;-1.385572404E-1;5.554011822E0;7.752789021E0;9.537923412E0
1.479921875E0;-2.007490247E-1;5.549749851E0;7.709645271E0;9.501507975E0
1.481921875E0;-2.646550536E-1;5.546110630E0;7.658850193E0;9.459776514E0
1.483921875E0;-3.293942511E-1;5.541714668E0;7.619671345E0;9.427539098E0
1.485921875E0;-3.877074718E-1;5.535796165E0;7.580779552E0;9.394869605E0
1.487921875E0;-4.304487407E-1;5.531716824E0;7.551168442E0;9.370449401E0
1.489921875E0;-4.802289605E-1;5.528336525E0;7.538335323E0;9.360535457E0
1.491921875E0;-5.169942975E-1;5.530596256E0;7.532235146E0;9.358917904E0
1.493921875E0;-5.371439457E-1;5.533095837E0;7.532848358E0;9.362023154E0
1.495921875E0;-5.562017560E-1;5.516987801E0;7.547385693E0;9.365337451E0
1.497921875E0;-5.668703318E-1;5.505227566E0;7.574765682E0;9.381148526E0
1.499921875E0;-5.655200481E-1;5.510216713E0;7.616204739E0;9.417477145E0
1.501921875E0;-5.553303361E-1;5.509297371E0;7.669030190E0;9.459110600E0
1.503921875E0;-5.428325534E-1;5.508215427E0;7.734171867E0;9.510652914E0
1.505921875E0;-5.098979473E-1;5.515187263E0;7.794658661E0;9.562112220E0
1.507921875E0;-4.723951519E-1;5.532818317E0;7.858143330E0;9.622143852E0
1.509921875E0;-4.384932518E-1;5.544970989E0;7.923878670E0;9.681261941E0
1.511921875E0;-3.994390368E-1;5.562448502E0;7.987076283E0;9.741343461E0
1.513921875E0;-3.469198346E-1;5.585289478E0;8.060443878E0;9.812571908E0
1.515921875E0;-3.000509441E-1;5.612449169E0;8.135870934E0;9.888478755E0
1.517921875E0;-2.453194857E-1;5.637760639E0;8.201366425E0;9.955246753E0
1.519921875E0;-1.909040660E-1;5.679305077E0;8.268729210E0;1.003308693E1
1.521921875E0;-1.356171519E-1;5.727610588E0;8.343236923E0;1.012094449E1
1.523921875E0;-8.127836138E-2;5.773550510E0;8.429467201E0;1.021745609E1
1.525921875E0;-2.250549570E-2;5.813782692E0;8.527859688E0;1.032109328E1
1.527921875E0;3.919786960E-2;5.851496220E0;8.628070831E0;1.042521706E1
1.529921875E0;9.980947524E-2;5.889257431E0;8.733808517E0;1.053435932E1
1.531921875E0;1.493694633E-1;5.922699928E0;8.833158493E0;1.063604130E1
1.533921875E0;1.864412725E-1;5.952043056E0;8.930305481E0;1.073368217E1
1.535921875E0;2.108717114E-1;5.971168041E0;9.018919945E0;1.081851337E1
1.537921875E0;2.270086259E-1;5.981750011E0;9.095792770E0;1.088881592E1
1.539921875E0;2.330324352E-1;5.988070965E0;9.153397560E0;1.094056602E1
1.541921875E0;2.209943980E-1;5.986979008E0;9.204201698E0;1.098226229E1
1.543921875E0;1.917755604E-1;5.981702328E0;9.244271278E0;1.101245168E1
1.545921875E0;1.623268723E-1;5.968400002E0;9.269525528E0;1.102598078E1
1.547921875E0;1.361343116E-1;5.943098068E0;9.275271416E0;1.101678751E1
1.549921875E0;1.121731400E-1;5.918648243E0;9.267734528E0;1.099699428E1
1.551921875E0;8.872912079E-2;5.895817280E0;9.256241798E0;1.097481419E1
1.553921875E0;7.934384048E-2;5.873828888E0;9.236064911E0;1.094591505E1
1.556096875E0;6.947973371E-2;5.861254692E0;9.207170486E0;1.091472044E1
1.557921875E0;6.025726721E-2;5.853832722E0;9.180843353E0;1.088847433E1
1.559921875E0;4.845863953E-2;5.852013111E0;9.154143333E0;1.086493193E1
1.561921875E0;3.970544040E-2;5.853670120E0;9.129072189E0;1.084467563E1
1.563921875E0;2.596272342E-2;5.860641479E0;9.104393005E0;1.082763892E1
1.565921875E0;7.326257415E-3;5.874078274E0;9.085315704E0;1.081886365E1
1.567921875E0;1.886630896E-3;5.879958630E0;9.064141273E0;1.080428499E1
1.569921875E0;-1.040041260E-2;5.878626823E0;9.056853294E0;1.079745123E1
1.571921875E0;-2.594356984E-2;5.882888794E0;9.054220200E0;1.079759034E1
1.573921875E0;-3.419877589E-2;5.888357162E0;9.058663368E0;1.080431866E1
1.575920312E0;-4.465664923E-2;5.881318569E0;9.067923546E0;1.080829033E1
1.577921875E0;-6.120537221E-2;5.878732204E0;9.080671310E0;1.081766287E1
1.579921875E0;-6.906793267E-2;5.872919559E0;9.102055550E0;1.083251447E1
1.581921875E0;-7.984183729E-2;5.854722977E0;9.121947289E0;1.083946854E1
1.583921875E0;-1.074709222E-1;5.842360020E0;9.145093918E0;1.085253258E1
1.585921875E0;-1.269597262E-1;5.825562000E0;9.159775734E0;1.085609427E1
1.587921875E0;-1.486416161E-1;5.803487301E0;9.167666435E0;1.085120579E1
1.589921875E0;-1.759067774E-1;5.789610863E0;9.174188614E0;1.084971308E1
1.591921875E0;-2.036699504E-1;5.770150185E0;9.170127869E0;1.083639053E1
1.593921875E0;-2.415749580E-1;5.749197006E0;9.162055016E0;1.081919021E1
1.595921875E0;-2.755821943E-1;5.732561588E0;9.154891014E0;1.080510238E1
1.597921875E0;-3.108823001E-1;5.720906734E0;9.153770447E0;1.079893213E1
1.599921875E0;-3.373143077E-1;5.701820374E0;9.151232719E0;1.078747407E1
1.601921875E0;-3.558070958E-1;5.687751770E0;9.150476456E0;1.077999714E1
1.603921875E0;-3.539012969E-1;5.676154137E0;9.155772209E0;1.077831790E1
1.605921875E0;-3.328227401E-1;5.666769028E0;9.171698570E0;1.078624573E1
1.607921875E0;-3.107290566E-1;5.665571690E0;9.187720299E0;1.079858599E1
1.609921875E0;-2.759173810E-1;5.671547890E0;9.192020416E0;1.080443544E1
1.611921875E0;-2.280620784E-1;5.688422203E0;9.206002235E0;1.082407671E1
1.613921875E0;-1.935855746E-1;5.712842941E0;9.212993622E0;1.084220002E1
1.615921875E0;-1.540716738E-1;5.739457130E0;9.210053444E0;1.085311894E1
1.617921875E0;-1.207443774E-1;5.759280682E0;9.197412491E0;1.085247850E1
1.619921875E0;-9.043378383E-2;5.785492897E0;9.174274445E0;1.084653944E1
1.621921875E0;-7.215166837E-2;5.813303947E0;9.147498131E0;1.083865447E1
1.623921875E0;-6.262274086E-2;5.833376408E0;9.113835335E0;1.082100718E1
1.625921875E0;-6.368576735E-2;5.860459805E0;9.082183838E0;1.080902902E1
1.627921875E0;-7.661445439E-2;5.886346340E0;9.058443069E0;1.080325571E1
1.629921875E0;-9.280883521E-2;5.911159515E0;9.031340599E0;1.079423612E1
1.631921875E0;-1.188194454E-1;5.931883812E0;9.007121086E0;1.078561977E1
1.633921875E0;-1.624896824E-1;5.958727360E0;8.989949226E0;1.078665943E1
1.636096875E0;-2.177574337E-1;5.996355057E0;8.974320412E0;1.079546753E1
1.637771875E0;-2.654978037E-1;6.040350437E0;8.968191147E0;1.081595002E1
1.639921875E0;-2.915180027E-1;6.065230846E0;8.963680267E0;1.082679878E1
1.641921875E0;-3.465080261E-1;6.099362850E0;8.953797340E0;1.083940874E1
1.643921875E0;-3.890769482E-1;6.126771450E0;8.934872627E0;1.084069454E1
1.645921875E0;-4.147044718E-1;6.142391682E0;8.908891678E0;1.082909536E1
1.647921875E0;-4.334079623E-1;6.135811806E0;8.888799667E0;1.080956930E1
1.649921875E0;-4.521114826E-1;6.127432823E0;8.858680725E0;1.078081917E1
1.651921875E0;-4.633738101E-1;6.094086170E0;8.821751595E0;1.073200367E1
1.653921875E0;-4.588631392E-1;6.047705650E0;8.788099289E0;1.067782694E1
1.655921875E0;-4.476295114E-1;6.010681629E0;8.745875359E0;1.062162895E1
1.657921875E0;-4.371333420E-1;5.955011845E0;8.707673073E0;1.055825847E1
1.659921875E0;-4.213986397E-1;5.900117874E0;8.676596642E0;1.050106171E1
1.661921875E0;-3.977439404E-1;5.854531765E0;8.645577431E0;1.044891150E1
1.663921875E0;-3.761578202E-1;5.798976421E0;8.623493195E0;1.039876229E1
1.666098437E0;-3.444298804E-1;5.740653992E0;8.611762047E0;1.035549061E1
1.667984375E0;-3.112941086E-1;5.683978558E0;8.602835655E0;1.031568212E1
1.669921875E0;-2.803610265E-1;5.623874664E0;8.596735001E0;1.027669311E1
1.671921875E0;-2.524350286E-1;5.558876514E0;8.591602325E0;1.023623281E1
1.673937500E0;-2.235609740E-1;5.492097855E0;8.579823494E0;1.018952843E1
1.675921875E0;-1.944570690E-1;5.428335667E0;8.556915283E0;1.013535598E1
1.677921875E0;-1.711854190E-1;5.353837490E0;8.523396492E0;1.006683506E1
1.679921875E0;-1.494077593E-1;5.274943352E0;8.476393700E0;9.984818486E0
1.681921875E0;-1.382220387E-1;5.211736202E0;8.429237366E0;9.911273487E0
1.683921875E0;-1.332133859E-1;5.158824921E0;8.380816460E0;9.842220527E0
1.685921875E0;-1.250539422E-1;5.103978634E0;8.327425957E0;9.767919914E0
1.687921875E0;-1.195472777E-1;5.052196980E0;8.273058891E0;9.694456627E0
1.689921875E0;-1.169615388E-1;4.991622925E0;8.230030060E0;9.626181705E0
1.691921875E0;-1.040998921E-1;4.935647011E0;8.191042900E0;9.563714341E0
1.693923437E0;-9.015605599E-2;4.880254269E0;8.162599564E0;9.510680390E0
1.695921875E0;-7.516835630E-2;4.811952591E0;8.151328087E0;9.465975259E0
1.697921875E0;-5.685750023E-2;4.738833904E0;8.173957825E0;9.448458396E0
1.699921875E0;-3.224511072E-2;4.666126728E0;8.221832275E0;9.453692631E0
1.701921875E0;1.542823575E-2;4.593563557E0;8.291484833E0;9.478912644E0
1.703923437E0;7.490978390E-2;4.515856743E0;8.381515503E0;9.520944056E0
1.705921875E0;1.334910989E-1;4.443073273E0;8.492798805E0;9.585736880E0
1.707921875E0;1.938824505E-1;4.369945049E0;8.633347511E0;9.678259109E0
1.709921875E0;2.600486279E-1;4.296413898E0;8.786480904E0;9.784122053E0
1.711921875E0;3.307637572E-1;4.223975182E0;8.944334984E0;9.897095498E0
1.713921875E0;4.083071649E-1;4.151497841E0;9.103914261E0;1.001413521E1
1.716098437E0;4.712076187E-1;4.077976704E0;9.266796112E0;1.013535598E1
1.718303125E0;5.352477431E-1;3.999370337E0;9.442205429E0;1.026823727E1
1.720114062E0;6.020172238E-1;3.927285671E0;9.617804527E0;1.040615978E1
1.722315625E0;6.703286171E-1;3.860688448E0;9.797331810E0;1.055187028E1
1.723921875E0;7.548151612E-1;3.791199207E0;9.982394218E0;1.070472474E1
1.725921875E0;8.385547996E-1;3.725617170E0;1.016371155E1;1.085745964E1
1.727921875E0;9.249184132E-1;3.655955553E0;1.034729862E1;1.101308648E1
1.729921875E0;1.030636787E0;3.589310646E0;1.054063606E1;1.118259235E1
1.731921875E0;1.120697141E0;3.534981489E0;1.073038101E1;1.135311115E1
1.733921875E0;1.212222695E0;3.481925726E0;1.092308617E1;1.152853425E1
1.735921875E0;1.292648673E0;3.425719500E0;1.111387539E1;1.170148370E1
1.737921875E0;1.370977283E0;3.372568369E0;1.129568100E1;1.186786440E1
1.739921875E0;1.443540812E0;3.320010662E0;1.147379017E1;1.203138154E1
1.741921875E0;1.501892328E0;3.260797262E0;1.164333820E1;1.218424408E1
1.743921875E0;1.554794550E0;3.210222244E0;1.178927898E1;1.231706182E1
1.745921875E0;1.597066641E0;3.155098200E0;1.191068459E1;1.242455930E1
1.747921875E0;1.636618733E0;3.092504263E0;1.202181339E1;1.252062701E1
1.749921875E0;1.662715554E0;3.033271551E0;1.212041569E1;1.260435781E1
1.751921875E0;1.688706994E0;2.971922636E0;1.220520878E1;1.267482453E1
1.753921875E0;1.705543041E0;2.914730072E0;1.226990986E1;1.272616267E1
1.755921875E0;1.707027435E0;2.855851650E0;1.232248688E1;1.276375784E1
1.757921875E0;1.701674104E0;2.800899982E0;1.236340809E1;1.279041028E1
1.759921875E0;1.696828246E0;2.747231483E0;1.239237881E1;1.280615319E1
1.761921875E0;1.688889027E0;2.703953743E0;1.240840054E1;1.281140569E1
1.763921875E0;1.671736956E0;2.674668074E0;1.240972137E1;1.280428594E1
1.765921875E0;1.642422318E0;2.653168201E0;1.240462685E1;1.279107579E1
1.767923437E0;1.613605738E0;2.639626503E0;1.238092518E1;1.276160883E1
1.769921875E0;1.590602279E0;2.641982317E0;1.233600998E1;1.271562930E1
1.771921875E0;1.576505303E0;2.646770716E0;1.226283264E1;1.264388503E1
1.773921875E0;1.551720500E0;2.652584076E0;1.217015839E1;1.255216292E1
1.775921875E0;1.539366364E0;2.655102491E0;1.205836773E1;1.244280717E1
1.777923437E0;1.513365388E0;2.666307688E0;1.191508007E1;1.230319489E1
1.779921875E0;1.483859181E0;2.685710192E0;1.174801254E1;1.214210344E1
1.781921875E0;1.451767325E0;2.707478285E0;1.155377579E1;1.195524161E1
1.783921875E0;1.423352957E0;2.742672920E0;1.132894135E1;1.174278929E1
1.785921875E0;1.394191504E0;2.780568361E0;1.108818913E1;1.151621763E1
1.787921875E0;1.371408343E0;2.828385592E0;1.081805706E1;1.126547311E1
1.789921875E0;1.350722432E0;2.885482311E0;1.052284145E1;1.099457373E1
1.791921875E0;1.331166625E0;2.952031612E0;1.022654533E1;1.072700912E1
1.793921875E0;1.312855721E0;3.027238369E0;9.938771248E0;1.047219825E1
1.796096875E0;1.295598269E0;3.104599714E0;9.650260925E0;1.021981654E1
1.797923437E0;1.280744672E0;3.186749458E0;9.377360344E0;9.986519216E0
1.799921875E0;1.271723390E0;3.280219316E0;9.115588188E0;9.770929698E0
1.801921875E0;1.269750476E0;3.366554022E0;8.862214088E0;9.564768204E0
1.803921875E0;1.273494959E0;3.453568935E0;8.625734329E0;9.378284519E0
1.805921875E0;1.272843838E0;3.532568216E0;8.403792381E0;9.204504116E0
1.807921875E0;1.265737772E0;3.599490643E0;8.196233749E0;9.040833627E0
1.809921875E0;1.258373260E0;3.657076120E0;7.997782707E0;8.883818844E0
1.811921875E0;1.251161814E0;3.709997654E0;7.804216385E0;8.731281799E0
1.813921875E0;1.243203640E0;3.760553360E0;7.616137505E0;8.584454983E0
1.815921875E0;1.223561525E0;3.800201416E0;7.439062595E0;8.442646854E0
1.817923437E0;1.196708202E0;3.827093124E0;7.269237041E0;8.301840728E0
1.819921875E0;1.165334582E0;3.862105846E0;7.107714176E0;8.172727028E0
1.821921875E0;1.135589004E0;3.891497135E0;6.961524487E0;8.055813771E0
1.823921875E0;1.110900044E0;3.912211657E0;6.830418110E0;7.949472342E0
1.825921875E0;1.082686782E0;3.929775715E0;6.706915379E0;7.848443268E0
1.827923437E0;1.054167032E0;3.948890924E0;6.602058887E0;7.764804519E0
1.829921875E0;1.020150185E0;3.962394238E0;6.518405914E0;7.696160741E0
1.831921875E0;9.918411374E-1;3.980906248E0;6.461567402E0;7.653967382E0
1.833921875E0;9.741049409E-1;3.992848396E0;6.431515217E0;7.632568816E0
1.835921875E0;9.653421044E-1;3.999983072E0;6.418988705E0;7.624642021E0
1.837921875E0;9.618944526E-1;4.022306442E0;6.438668728E0;7.652492734E0
1.839921875E0;9.791805744E-1;4.040512085E0;6.478681087E0;7.697911479E0
1.841921875E0;1.007460952E0;4.041067600E0;6.537846565E0;7.751686438E0
1.843921875E0;1.041697979E0;4.046488285E0;6.625388145E0;7.832941350E0
1.845921875E0;1.093163848E0;4.057300091E0;6.746017456E0;7.947669013E0
1.847923437E0;1.150873661E0;4.065718651E0;6.882822037E0;8.076374033E0
1.849921875E0;1.199705720E0;4.063984871E0;7.029893398E0;8.208207358E0
1.851921875E0;1.249083757E0;4.067069054E0;7.178697586E0;8.344756435E0
1.853921875E0;1.299429059E0;4.074366093E0;7.334943295E0;8.490604694E0
1.855921875E0;1.345206141E0;4.076760292E0;7.482780933E0;8.626793410E0
1.857921875E0;1.395331144E0;4.067203045E0;7.624593735E0;8.753486119E0
1.859921875E0;1.442295790E0;4.076051712E0;7.751630306E0;8.875933028E0
1.861921875E0;1.490131974E0;4.082200050E0;7.862970352E0;8.983938630E0
1.863921875E0;1.527510285E0;4.082448959E0;7.966917038E0;9.081378985E0
1.865921875E0;1.556748271E0;4.079805851E0;8.059342384E0;9.166312270E0
1.868090625E0;1.575681686E0;4.074873924E0;8.148828506E0;9.246122231E0
1.869921875E0;1.597420931E0;4.080342293E0;8.220922470E0;9.315820582E0
1.871921875E0;1.617197037E0;4.088118553E0;8.288064957E0;9.381900676E0
1.873921875E0;1.630211949E0;4.082899094E0;8.350985527E0;9.437511075E0
1.876096875E0;1.639329076E0;4.069865227E0;8.408120155E0;9.484075460E0
1.877923437E0;1.637902141E0;4.051382065E0;8.457469940E0;9.519727824E0
1.879921875E0;1.643609881E0;4.027746201E0;8.500450134E0;9.548918545E0
1.881921875E0;1.646435022E0;3.998278618E0;8.536008835E0;9.568721284E0
1.883921875E0;1.648743033E0;3.962691069E0;8.572736740E0;9.587131443E0
1.885921875E0;1.649288893E0;3.924700022E0;8.598297119E0;9.594484742E0
1.887921875E0;1.662639022E0;3.891755581E0;8.615506172E0;9.598806000E0
1.889921875E0;1.675146341E0;3.860583305E0;8.636479378E0;9.607236583E0
1.891921875E0;1.681352019E0;3.828587055E0;8.652462959E0;9.609897955E0
1.893921875E0;1.672072172E0;3.796974182E0;8.663849831E0;9.605994596E0
1.895921875E0;1.661384344E0;3.762018681E0;8.683444023E0;9.608079027E0
1.897923437E0;1.651041508E0;3.734198093E0;8.708343506E0;9.617973803E0
1.899921875E0;1.626879096E0;3.716614962E0;8.721933365E0;9.619359853E0
1.901921875E0;1.613260984E0;3.703887463E0;8.726817131E0;9.616586223E0
1.903921875E0;1.600926042E0;3.705084562E0;8.725916862E0;9.614168757E0
1.905921875E0;1.592555881E0;3.704174757E0;8.721473694E0;9.608394676E0
1.907921875E0;1.573574662E0;3.699156523E0;8.714396477E0;9.596905863E0
1.909921875E0;1.554076314E0;3.704337597E0;8.702779770E0;9.585178451E0
1.911921875E0;1.524263620E0;3.710275173E0;8.691163063E0;9.572138572E0
1.913921875E0;1.491769671E0;3.712583303E0;8.667967796E0;9.546848551E0
1.915921875E0;1.455042601E0;3.715341330E0;8.652137756E0;9.527874785E0
1.917921875E0;1.409677267E0;3.712765217E0;8.638116837E0;9.507306560E0
1.919921875E0;1.369445086E0;3.702824354E0;8.627515793E0;9.487903709E0
1.921921875E0;1.329988599E0;3.690470457E0;8.613523483E0;9.464736059E0
1.923921875E0;1.293414831E0;3.674984694E0;8.594312668E0;9.436135049E0
1.925921875E0;1.258861661E0;3.658110380E0;8.578137398E0;9.410151192E0
1.927921875E0;1.218102813E0;3.645449638E0;8.560708046E0;9.383965035E0
1.929921875E0;1.189879894E0;3.630059719E0;8.541439056E0;9.356779835E0
1.931921875E0;1.154589415E0;3.610580683E0;8.532781601E0;9.336901597E0
1.933921875E0;1.104157925E0;3.590555668E0;8.523176193E0;9.314278670E0
1.935921875E0;1.049953222E0;3.581055403E0;8.516883850E0;9.298584305E0
1.937923437E0;1.009472013E0;3.588908434E0;8.522649765E0;9.302411328E0
1.939921875E0;9.647867084E-1;3.597862482E0;8.530866623E0;9.308657968E0
1.941921875E0;9.169505239E-1;3.601990223E0;8.536526680E0;9.310607906E0
1.943921875E0;8.921274543E-1;3.611212730E0;8.537091255E0;9.312286286E0
1.945921875E0;8.650729656E-1;3.617533445E0;8.543498039E0;9.318060861E0
1.947921875E0;8.373098373E-1;3.635422945E0;8.539208412E0;9.318555041E0
1.949921875E0;8.225997686E-1;3.644990206E0;8.534016609E0;9.316225817E0
1.951921875E0;8.121419549E-1;3.654097557E0;8.530052185E0;9.315245235E0
1.953921875E0;8.043464422E-1;3.670991182E0;8.516674042E0;9.308968052E0
1.956096875E0;7.884584665E-1;3.690508842E0;8.494666100E0;9.295207067E0
1.957923437E0;7.700614333E-1;3.708589554E0;8.472189903E0;9.280335815E0
1.959921875E0;7.499884367E-1;3.725837708E0;8.437291145E0;9.253768484E0
1.961921875E0;7.272339463E-1;3.751369476E0;8.397882462E0;9.226379138E0
1.963921875E0;7.015394568E-1;3.773549080E0;8.350746155E0;9.190581680E0
1.965921875E0;6.768599749E-1;3.794627666E0;8.301310539E0;9.152545833E0
1.967921875E0;6.498916745E-1;3.812928915E0;8.241369247E0;9.103897691E0
1.969921875E0;6.232777238E-1;3.829429865E0;8.179062843E0;9.052628193E0
1.971921875E0;5.891651511E-1;3.847970486E0;8.118795395E0;9.003823138E0
1.973921875E0;5.667937398E-1;3.862144232E0;8.055550575E0;8.951497544E0
1.975921875E0;5.602432489E-1;3.877467155E0;8.002408981E0;8.909948010E0
1.977923437E0;5.493447781E-1;3.889821291E0;7.956372738E0;8.873350917E0
1.979921875E0;5.274809599E-1;3.905823946E0;7.916868687E0;8.843670429E0
1.981921875E0;5.032612085E-1;3.925878048E0;7.881185055E0;8.819232855E0
1.983921875E0;4.859175980E-1;3.948651552E0;7.859110832E0;8.808722272E0
1.985921875E0;4.844332039E-1;3.975150585E0;7.832468033E0;8.796820630E0
1.987921875E0;4.877180457E-1;3.994304180E0;7.804944515E0;8.781201151E0
1.989921875E0;4.940866232E-1;4.014338970E0;7.780734539E0;8.769200016E0
1.991921875E0;5.023226738E-1;4.026558876E0;7.758142471E0;8.755242947E0
1.993921875E0;5.122729540E-1;4.040244102E0;7.724968433E0;8.732762065E0
1.995921875E0;5.145809650E-1;4.052627087E0;7.687580585E0;8.705600217E0
1.997921875E0;5.085284710E-1;4.078216076E0;7.647281170E0;8.681667862E0
1.999921875E0;5.003690124E-1;4.086528778E0;7.603457928E0;8.646540294E0
2.001921875E0;4.927458465E-1;4.099370956E0;7.558475494E0;8.612676269E0
2.003921875E0;4.924106896E-1;4.118707180E0;7.516720772E0;8.585296051E0
2.005921875E0;5.016139746E-1;4.129002094E0;7.477753162E0;8.556697215E0
2.007921875E0;5.016331673E-1;4.143903255E0;7.438267708E0;8.529442920E0
2.009921875E0;4.980322719E-1;4.163009167E0;7.403848648E0;8.508563702E0
2.011921875E0;4.846247137E-1;4.186855316E0;7.380059719E0;8.498817565E0
2.013921875E0;4.645038545E-1;4.208997250E0;7.356251717E0;8.487983329E0
2.016098437E0;4.427549541E-1;4.227058887E0;7.329589844E0;8.472717750E0
2.017984375E0;4.270489812E-1;4.243052483E0;7.313711643E0;8.466182328E0
2.019921875E0;4.140340984E-1;4.260127544E0;7.297316074E0;8.459960568E0
2.021921875E0;4.028387964E-1;4.273439407E0;7.283707619E0;8.454404777E0
2.023921875E0;3.965181112E-1;4.289662361E0;7.274877548E0;8.454718986E0
2.025921875E0;3.904176950E-1;4.300005436E0;7.264879227E0;8.451091226E0
2.027921875E0;3.877744675E-1;4.308730125E0;7.253731728E0;8.445836152E0
2.029921875E0;3.869604468E-1;4.320997715E0;7.240487099E0;8.440699797E0
2.031921875E0;3.784658313E-1;4.345217228E0;7.228315353E0;8.442315559E0
2.033921875E0;3.834744990E-1;4.383591652E0;7.215702534E0;8.451585148E0
2.036096875E0;3.983185291E-1;4.419121742E0;7.214199066E0;8.469472403E0
2.037921875E0;4.287728071E-1;4.453492641E0;7.222138405E0;8.495688669E0
2.039921875E0;4.508185983E-1;4.491407394E0;7.227663994E0;8.521449677E0
2.041921875E0;4.833031297E-1;4.527052402E0;7.234061718E0;8.547481168E0
2.043921875E0;5.198003650E-1;4.559651852E0;7.242632389E0;8.574167094E0
2.045921875E0;5.586056113E-1;4.595766068E0;7.251520157E0;8.603351124E0
2.047923437E0;5.996900797E-1;4.631094933E0;7.261431694E0;8.633368909E0
2.049921875E0;6.425846219E-1;4.674267292E0;7.267474651E0;8.664749132E0
2.051921875E0;6.829316616E-1;4.713771343E0;7.278478622E0;8.698407152E0
2.053921875E0;7.286418080E-1;4.753151417E0;7.284875870E0;8.728847788E0
2.055921875E0;7.723503709E-1;4.795183659E0;7.295429707E0;8.764337169E0
2.057921875E0;8.019426465E-1;4.833433628E0;7.297689438E0;8.789850043E0
2.059921875E0;8.336801529E-1;4.864165306E0;7.290391922E0;8.803689062E0
2.061921875E0;8.655614257E-1;4.896362782E0;7.277645588E0;8.814062081E0
2.063921875E0;8.811619878E-1;4.925724983E0;7.263969898E0;8.820684313E0
2.065921875E0;8.937746286E-1;4.946573734E0;7.255446434E0;8.826603410E0
2.067921875E0;9.108309150E-1;4.962423325E0;7.241224766E0;8.825564816E0
2.069921875E0;9.240469337E-1;4.980762959E0;7.231197834E0;8.829047769E0
2.071921875E0;9.450010061E-1;5.003144264E0;7.229675293E0;8.842662737E0
2.073921875E0;9.552960992E-1;5.019146919E0;7.244481087E0;8.864927109E0
2.075921875E0;9.685024619E-1;5.035245419E0;7.263031483E0;8.890631010E0
2.077921875E0;9.762213826E-1;5.046642303E0;7.294921875E0;8.923984082E0
2.079921875E0;9.881923795E-1;5.062348366E0;7.340986252E0;8.971843417E0
2.081921875E0;9.875124693E-1;5.071896076E0;7.388822079E0;9.016318672E0
2.083921875E0;9.870335460E-1;5.081606865E0;7.443400860E0;9.066486635E0
2.085921875E0;9.833369851E-1;5.091480255E0;7.510419369E0;9.126692824E0
2.087921875E0;9.717010856E-1;5.107148647E0;7.581192017E0;9.192477506E0
2.089921875E0;9.604579210E-1;5.109858513E0;7.644379616E0;9.244980971E0
2.091921875E0;9.552385807E-1;5.104562283E0;7.712624073E0;9.298043178E0
2.093921875E0;9.335088134E-1;5.096786022E0;7.791182518E0;9.356879367E0
2.095921875E0;9.041271806E-1;5.085533142E0;7.875103951E0;9.417927348E0
2.097921875E0;8.701199293E-1;5.077048302E0;7.957158089E0;9.478918345E0
2.099921875E0;8.404797316E-1;5.079950333E0;8.024138451E0;9.534101921E0
2.101921875E0;8.045954108E-1;5.075372696E0;8.089280128E0;9.583487610E0
2.103921875E0;7.596897483E-1;5.066552162E0;8.157773018E0;9.633085691E0
2.105921875E0;7.338132262E-1;5.066830158E0;8.219150543E0;9.683268320E0
2.107921875E0;7.035409808E-1;5.062443733E0;8.269486427E0;9.721507714E0
2.109921875E0;6.806236506E-1;5.043653965E0;8.309804916E0;9.744462613E0
2.111921875E0;6.501885653E-1;5.022000790E0;8.350200653E0;9.765709808E0
2.113921875E0;6.324523091E-1;4.998537540E0;8.384274483E0;9.781688610E0
2.116098437E0;6.094584465E-1;4.977114201E0;8.417956352E0;9.798218946E0
2.117921875E0;5.893087983E-1;4.961389065E0;8.444377899E0;9.811737074E0
2.119921875E0;5.757672191E-1;4.950730324E0;8.471193314E0;9.828649693E0
2.121921875E0;5.627139807E-1;4.947253704E0;8.493928909E0;9.845750076E0
2.123771875E0;5.560868382E-1;4.953546047E0;8.513896942E0;9.865763638E0
2.125921875E0;5.495267510E-1;4.957587242E0;8.524737358E0;9.876780748E0
2.127921875E0;5.434550643E-1;4.967020512E0;8.533710480E0;9.888925661E0
2.129921875E0;5.391933322E-1;4.983339310E0;8.546438217E0;9.907875974E0
2.131921875E0;5.371247530E-1;4.989793777E0;8.562584877E0;9.924938525E0
2.133921875E0;5.256326199E-1;4.994170666E0;8.570925713E0;9.933720243E0
2.135921875E0;5.000721216E-1;5.009436131E0;8.576461792E0;9.944858940E0
2.137921875E0;4.879287481E-1;5.022106647E0;8.583098412E0;9.956365199E0
2.139921875E0;4.770973623E-1;5.028494358E0;8.586124420E0;9.961672046E0
2.141921875E0;4.464803040E-1;5.052618027E0;8.586268425E0;9.972577353E0
2.143921875E0;4.085561633E-1;5.082373142E0;8.577649117E0;9.978652177E0
2.145921875E0;3.795863092E-1;5.107129097E0;8.560899734E0;9.975763512E0
2.147921875E0;3.636983931E-1;5.128667355E0;8.553103447E0;9.979533252E0
2.149921875E0;3.390285373E-1;5.145417213E0;8.546945572E0;9.982010682E0
2.151921875E0;3.151152730E-1;5.161170959E0;8.537666321E0;9.981419213E0
2.153921875E0;3.012863398E-1;5.190313339E0;8.524956703E0;9.985239747E0
2.155921875E0;2.843066752E-1;5.205779552E0;8.520015717E0;9.988575416E0
2.157921875E0;2.750554681E-1;5.223267078E0;8.517363548E0;9.995181654E0
2.159921875E0;2.710523605E-1;5.242257595E0;8.513723373E0;1.000191081E1
2.161921875E0;2.687539458E-1;5.254927635E0;8.511358261E0;1.000648353E1
2.163921875E0;2.768846452E-1;5.262014866E0;8.521778107E0;1.001928978E1
2.165921875E0;2.875052989E-1;5.274895668E0;8.534275055E0;1.003698333E1
2.167921875E0;3.041785359E-1;5.282193184E0;8.554013252E0;1.005809287E1
2.169921875E0;3.183426261E-1;5.296088696E0;8.569757462E0;1.007921825E1
2.171921875E0;3.257550895E-1;5.305119991E0;8.591602325E0;1.010277412E1
2.173921875E0;3.274406195E-1;5.316162109E0;8.611138344E0;1.012524076E1
2.175921875E0;3.200185895E-1;5.335746765E0;8.625916481E0;1.014785892E1
2.177921875E0;3.109301627E-1;5.349795818E0;8.632361412E0;1.016044568E1
2.179921875E0;3.042647541E-1;5.354689598E0;8.631011009E0;1.016167451E1
2.181921875E0;2.945251167E-1;5.365319729E0;8.621692657E0;1.015908387E1
2.183921875E0;2.820944190E-1;5.371487141E0;8.604578972E0;1.014747410E1
2.185921875E0;2.787999809E-1;5.373737812E0;8.590232849E0;1.013641396E1
2.187921875E0;2.903783619E-1;5.374686241E0;8.576691628E0;1.012576965E1
2.189921875E0;2.976567447E-1;5.370864868E0;8.568655968E0;1.011714654E1
2.191921875E0;3.022057116E-1;5.367397785E0;8.573243141E0;1.011932731E1
2.193921875E0;3.018513918E-1;5.370634556E0;8.596304893E0;1.014057630E1
2.196096875E0;2.909912765E-1;5.366718292E0;8.621415138E0;1.015948523E1
2.197921875E0;2.996869981E-1;5.361872196E0;8.653333664E0;1.018428541E1
2.199921875E0;3.100970089E-1;5.351634979E0;8.683626175E0;1.020497529E1
2.201921875E0;3.191758096E-1;5.343235970E0;8.718332291E0;1.023041357E1
2.203921875E0;3.257072270E-1;5.338763237E0;8.755404472E0;1.025990183E1
2.205921875E0;3.279002905E-1;5.327596664E0;8.786902428E0;1.028107286E1
2.207921875E0;3.265020847E-1;5.308692455E0;8.818390846E0;1.029819578E1
2.209921875E0;3.208326101E-1;5.289337635E0;8.856966019E0;1.032113721E1
2.211921875E0;3.041976988E-1;5.269992352E0;8.896699905E0;1.034488399E1
2.213921875E0;2.915371358E-1;5.254248142E0;8.935285568E0;1.036973701E1
2.216068750E0;2.744425535E-1;5.237545967E0;8.983322144E0;1.040227298E1
2.218298437E0;2.457887381E-1;5.214801311E0;9.032250404E0;1.043245475E1
2.220101562E0;2.208794653E-1;5.194077015E0;9.082806587E0;1.046540010E1
2.221921875E0;1.964873523E-1;5.178083420E0;9.133448601E0;1.050100179E1
2.223921875E0;1.595783383E-1;5.167309761E0;9.179321289E0;1.053501280E1
2.225921875E0;1.238376945E-1;5.156564236E0;9.222646713E0;1.056705744E1
2.227921875E0;8.180508763E-2;5.134154797E0;9.260581017E0;1.058889032E1
2.229921875E0;4.403415695E-2;5.122327805E0;9.288937569E0;1.060775859E1
2.231921875E0;3.476380836E-3;5.105079651E0;9.314085960E0;1.062139575E1
2.233921875E0;-2.815581113E-2;5.085725307E0;9.335097313E0;1.063058966E1
2.235921875E0;-6.596504152E-2;5.077278137E0;9.349999428E0;1.063981174E1
2.237921875E0;-9.875603765E-2;5.070536137E0;9.362477303E0;1.064782000E1
2.239921875E0;-1.310107112E-1;5.075880051E0;9.375741959E0;1.066237588E1
2.241921875E0;-1.615511477E-1;5.077134609E0;9.393918991E0;1.067937773E1
2.243921875E0;-1.830223501E-1;5.079739094E0;9.403820992E0;1.068967238E1
2.245921875E0;-1.968799829E-1;5.089067459E0;9.414977074E0;1.070416567E1
2.247921875E0;-2.004425675E-1;5.113765717E0;9.428672791E0;1.072803093E1
2.249921875E0;-2.014768720E-1;5.140695572E0;9.437664986E0;1.074880757E1
2.251921875E0;-2.056906521E-1;5.166773319E0;9.437608719E0;1.076133419E1
2.253921875E0;-2.106801718E-1;5.192592621E0;9.423108101E0;1.076115099E1
2.255921875E0;-2.270086259E-1;5.219235420E0;9.392357826E0;1.074748049E1
2.257921875E0;-2.450609058E-1;5.244460583E0;9.350305557E0;1.072346193E1
2.259921875E0;-2.651434541E-1;5.272453785E0;9.288928032E0;1.068425262E1
2.261921875E0;-2.791447639E-1;5.296529770E0;9.213271141E0;1.063087553E1
2.263921875E0;-3.015545011E-1;5.313480377E0;9.123431206E0;1.056224435E1
2.265921875E0;-3.115909696E-1;5.325260162E0;9.022281647E0;1.048127143E1
2.267921875E0;-3.328802288E-1;5.330278397E0;8.912272453E0;1.038996041E1
2.269921875E0;-3.584598601E-1;5.331254959E0;8.804455757E0;1.029899093E1
2.271921875E0;-3.731315732E-1;5.323411465E0;8.686642647E0;1.019488584E1
2.273921875E0;-3.823731542E-1;5.302610874E0;8.572218895E0;1.008696327E1
2.276096875E0;-3.944878280E-1;5.291961193E0;8.459288597E0;9.985992063E0
2.277921875E0;-3.862900734E-1;5.273152828E0;8.353513718E0;9.886179859E0
2.279921875E0;-3.742041588E-1;5.247113228E0;8.252171516E0;9.786243442E0
2.281921875E0;-3.608349264E-1;5.220997334E0;8.158912659E0;9.693135240E0
2.283921875E0;-3.444873095E-1;5.187842369E0;8.061047554E0;9.592333794E0
2.285921875E0;-3.167529106E-1;5.149391651E0;7.966064453E0;9.490771816E0
2.287921875E0;-2.900144458E-1;5.120498657E0;7.882573605E0;9.404178939E0
2.289921875E0;-2.555953860E-1;5.094095230E0;7.822776318E0;9.338681092E0
2.291921875E0;-2.129881829E-1;5.081079960E0;7.790378094E0;9.303371882E0
2.293921875E0;-1.681112647E-1;5.069971085E0;7.781825542E0;9.289223701E0
2.295921875E0;-1.205432639E-1;5.064924240E0;7.808047295E0;9.307716734E0
2.297921875E0;-6.002742425E-2;5.070698738E0;7.861505032E0;9.355151006E0
2.299921875E0;-4.453215282E-3;5.075793743E0;7.937295914E0;9.421484404E0
2.301921875E0;4.393838719E-2;5.071493626E0;8.037440300E0;9.503811065E0
2.303921875E0;1.005277410E-1;5.062932014E0;8.151499748E0;9.596370905E0
2.305921875E0;1.429721564E-1;5.059340954E0;8.275490761E0;9.700573141E0
2.307921875E0;1.865657866E-1;5.056822300E0;8.412315369E0;9.816990803E0
2.309921875E0;2.273438126E-1;5.035696030E0;8.554109573E0;9.928882631E0
2.311921875E0;2.445533425E-1;5.016388893E0;8.700758934E0;1.004625153E1
2.313921875E0;2.610062957E-1;4.997675896E0;8.837419510E0;1.015602640E1
2.315921875E0;2.726708353E-1;4.967039585E0;8.972117424E0;1.025888506E1
2.317921875E0;2.820369601E-1;4.930437088E0;9.105130196E0;1.035819244E1
2.319921875E0;2.895356119E-1;4.898344994E0;9.218002319E0;1.044266160E1
2.321921875E0;2.917287052E-1;4.861464977E0;9.332387924E0;1.052674744E1
2.323921875E0;2.717610598E-1;4.820581436E0;9.440711021E0;1.060372029E1
2.325921875E0;2.430114746E-1;4.771777630E0;9.543642998E0;1.067286456E1
2.327921875E0;2.056619227E-1;4.713732719E0;9.635426521E0;1.072860742E1
2.329921875E0;1.614649594E-1;4.657191277E0;9.724375725E0;1.078327338E1
2.331921875E0;1.213477179E-1;4.593448162E0;9.801315308E0;1.082498374E1
2.333921875E0;7.335833460E-2;4.527732372E0;9.863555908E0;1.085336248E1
2.335921875E0;1.720952243E-2;4.455762863E0;9.905607224E0;1.086163769E1
2.337921875E0;-3.328897804E-2;4.373066902E0;9.922549248E0;1.084351446E1
2.339921875E0;-7.989929616E-2;4.293129444E0;9.919924736E0;1.080935942E1
2.341921875E0;-1.140597686E-1;4.220470428E0;9.895139694E0;1.075821406E1
2.343921875E0;-1.401086897E-1;4.148222446E0;9.849056244E0;1.068790385E1
2.345921875E0;-1.552400291E-1;4.069778919E0;9.782238960E0;1.059619738E1
2.347921875E0;-1.583141983E-1;4.001611233E0;9.706974983E0;1.050063423E1
2.349921875E0;-1.642901152E-1;3.949810266E0;9.621904373E0;1.040235724E1
2.351921875E0;-1.721047908E-1;3.917890787E0;9.528108597E0;1.030360819E1
2.353921875E0;-1.861539781E-1;3.898852110E0;9.430913925E0;1.020675455E1
2.356096875E0;-2.022525817E-1;3.888537884E0;9.332464218E0;1.011219666E1
2.357921875E0;-2.174892873E-1;3.879765511E0;9.232673645E0;1.001709262E1
2.359921875E0;-2.188779116E-1;3.881910563E0;9.133410454E0;9.926546412E0
2.361921875E0;-2.276407033E-1;3.884745598E0;9.039289474E0;9.841332372E0
2.363921875E0;-2.428199351E-1;3.883510113E0;8.950867653E0;9.760053486E0
2.366098437E0;-2.467464358E-1;3.893048525E0;8.877260208E0;9.696517902E0
2.367989062E0;-2.351680547E-1;3.899599075E0;8.813267708E0;9.640324925E0
2.369921875E0;-2.194525301E-1;3.902012348E0;8.761897087E0;9.593992930E0
2.371921875E0;-2.173839360E-1;3.909731388E0;8.724605560E0;9.563053774E0
2.373921875E0;-2.104311883E-1;3.918005705E0;8.691555977E0;9.536152017E0
2.375921875E0;-2.124423087E-1;3.922066450E0;8.664721489E0;9.513418705E0
2.377921875E0;-2.269799113E-1;3.933970213E0;8.644983292E0;9.500704060E0
2.379921875E0;-2.457504421E-1;3.949896574E0;8.625896454E0;9.490424957E0
2.381921875E0;-2.768942118E-1;3.960593700E0;8.611933708E0;9.483057263E0
2.383921875E0;-3.136787415E-1;3.965956688E0;8.596812248E0;9.472718070E0
2.385921875E0;-3.491990864E-1;3.963141203E0;8.590204239E0;9.466785994E0
2.387921875E0;-3.870562017E-1;3.973742723E0;8.582407951E0;9.465630987E0
2.389921875E0;-4.393743277E-1;3.982476711E0;8.566511154E0;9.457181605E0
2.391921875E0;-5.001008511E-1;3.987792015E0;8.549473763E0;9.447014747E0
2.393921875E0;-5.532329679E-1;3.998278618E0;8.519796371E0;9.427578100E0
2.395921875E0;-6.142851114E-1;4.014846325E0;8.479679108E0;9.402196285E0
2.397921875E0;-6.579458117E-1;4.021492481E0;8.426057816E0;9.359687216E0
2.399921875E0;-7.076686025E-1;4.029518127E0;8.360810280E0;9.308112576E0
2.401921875E0;-7.657231688E-1;4.033818245E0;8.286226273E0;9.247679030E0
2.403921875E0;-8.199949265E-1;4.036978722E0;8.208500862E0;9.184175264E0
2.405921875E0;-8.719778657E-1;4.045970917E0;8.128305435E0;9.121380121E0
2.407921875E0;-9.244779348E-1;4.059081554E0;8.047514915E0;9.060535240E0
2.409921875E0;-9.727162719E-1;4.065278053E0;7.965308189E0;8.995487599E0
2.411921875E0;-1.020935535E0;4.062376022E0;7.878839016E0;8.923077527E0
2.413921875E0;-1.057719946E0;4.064741611E0;7.801707745E0;8.860448046E0
2.415921875E0;-1.090922832E0;4.065469265E0;7.723828793E0;8.796344933E0
2.417921875E0;-1.131605148E0;4.076291084E0;7.648650646E0;8.740625603E0
2.419921875E0;-1.154876709E0;4.084919930E0;7.582657337E0;8.690051975E0
2.421921875E0;-1.168351293E0;4.091757774E0;7.528691769E0;8.648047535E0
2.423921875E0;-1.172756553E0;4.097159386E0;7.475185871E0;8.604677610E0
2.425921875E0;-1.152453780E0;4.098710537E0;7.427761555E0;8.561496335E0
2.427921875E0;-1.121300459E0;4.106343269E0;7.387864590E0;8.526424395E0
2.429921875E0;-1.089074492E0;4.124462605E0;7.361882687E0;8.508501144E0
2.431921875E0;-1.036028624E0;4.136452675E0;7.356385708E0;8.502941063E0
2.433921875E0;-9.780313969E-1;4.160969257E0;7.365656376E0;8.516049813E0
2.436096875E0;-9.066650271E-1;4.195196629E0;7.386849403E0;8.543258180E0
2.437921875E0;-8.356626034E-1;4.220613956E0;7.427091122E0;8.583332493E0
2.439921875E0;-7.727333903E-1;4.248673916E0;7.476191998E0;8.633758957E0
2.441921875E0;-7.137881517E-1;4.281991005E0;7.543995380E0;8.703838624E0
2.443921875E0;-6.626288295E-1;4.301997662E0;7.618301868E0;8.774097344E0
2.445921875E0;-6.093243361E-1;4.313393593E0;7.704991341E0;8.851188168E0
2.447921875E0;-5.585864186E-1;4.310405731E0;7.792312622E0;8.922541810E0
2.449921875E0;-5.091700554E-1;4.303395271E0;7.890225410E0;9.001895469E0
2.451921875E0;-4.688517451E-1;4.288953781E0;7.989996910E0;9.080473397E0
2.453921875E0;-4.253059924E-1;4.271083355E0;8.091510773E0;9.159453302E0
2.455921875E0;-4.025610685E-1;4.253471851E0;8.209746361E0;9.254945354E0
2.457921875E0;-3.770197332E-1;4.231215477E0;8.330529213E0;9.351098612E0
2.459921875E0;-3.599730134E-1;4.208978176E0;8.450009346E0;9.447101979E0
2.461921875E0;-3.469677269E-1;4.192065239E0;8.574402809E0;9.550611557E0
2.463921875E0;-3.428975642E-1;4.170144081E0;8.703680038E0;9.657211120E0
2.465921875E0;-3.534990847E-1;4.144717216E0;8.821608543E0;9.753174852E0
2.467921875E0;-3.673854768E-1;4.114607811E0;8.932392120E0;9.841371780E0
2.469921875E0;-3.751043677E-1;4.074145794E0;9.034491539E0;9.917731828E0
2.471921875E0;-3.774028122E-1;4.035331249E0;9.126247406E0;9.985725957E0
2.473921875E0;-3.779199421E-1;3.998862743E0;9.207631111E0;1.004560588E1
2.475921875E0;-3.899005353E-1;3.955901146E0;9.277626991E0;1.009334131E1
2.477921875E0;-4.104044735E-1;3.907069206E0;9.348016739E0;1.013997232E1
2.479921875E0;-4.303337932E-1;3.862843275E0;9.408724785E0;1.017992374E1
2.481921875E0;-4.446032345E-1;3.819441080E0;9.469517708E0;1.022044851E1
2.483921875E0;-4.553197026E-1;3.785634995E0;9.519921303E0;1.025510848E1
2.485921875E0;-4.734581709E-1;3.748189688E0;9.563993454E0;1.028314443E1
2.487921875E0;-4.982429445E-1;3.701732635E0;9.611494064E0;1.031173548E1
2.489921875E0;-5.115355253E-1;3.668175459E0;9.645271301E0;1.033191358E1
2.491921875E0;-5.287737846E-1;3.636916876E0;9.662280083E0;1.033762170E1
2.493921875E0;-5.513463616E-1;3.612007618E0;9.667556763E0;1.033500051E1
2.495921875E0;-5.735836625E-1;3.591972828E0;9.668610573E0;1.033021285E1
2.497921875E0;-6.041049957E-1;3.567417860E0;9.656485558E0;1.031208642E1
2.499921875E0;-6.344826221E-1;3.552095175E0;9.636278152E0;1.028969411E1
2.501921875E0;-6.613934040E-1;3.546712875E0;9.603851318E0;1.025917022E1
2.503921875E0;-6.787083149E-1;3.540746689E0;9.568388939E0;1.022504763E1
2.505921875E0;-6.964158416E-1;3.543734550E0;9.526049614E0;1.018767249E1
2.507921875E0;-7.138072848E-1;3.552238703E0;9.476385117E0;1.014543225E1
2.509921875E0;-7.340430617E-1;3.555466175E0;9.419527054E0;1.009493184E1
2.511921875E0;-7.607815266E-1;3.569017410E0;9.361060143E0;1.004719467E1
2.513921875E0;-7.694963813E-1;3.580911636E0;9.301243782E0;9.996408791E0
2.516096875E0;-7.732409835E-1;3.597010136E0;9.237864494E0;9.943566963E0
2.517921875E0;-7.633289695E-1;3.608550310E0;9.179522514E0;9.892822653E0
2.519921875E0;-7.494425774E-1;3.622618675E0;9.123880386E0;9.845314802E0
2.521921875E0;-7.326831818E-1;3.648667812E0;9.075048447E0;9.808471122E0
2.523921875E0;-7.107043862E-1;3.669487476E0;9.025700569E0;9.769007617E0
2.525921875E0;-6.903728843E-1;3.678480148E0;8.985094070E0;9.733434459E0
2.527921875E0;-6.686526537E-1;3.679734945E0;8.947859764E0;9.698027634E0
2.529921875E0;-6.393476129E-1;3.683268547E0;8.910194397E0;9.662649572E0
2.531921875E0;-6.154822111E-1;3.692414522E0;8.870976448E0;9.628445695E0
2.533921875E0;-5.943940878E-1;3.700650692E0;8.841930389E0;9.603533354E0
2.535921875E0;-5.787742734E-1;3.704289913E0;8.822834015E0;9.586404095E0
2.537921875E0;-5.688431859E-1;3.710514545E0;8.801640511E0;9.568718641E0
2.539921875E0;-5.556463003E-1;3.724152088E0;8.794113159E0;9.566319974E0
2.541921875E0;-5.456672907E-1;3.735289812E0;8.803201675E0;9.578439461E0
2.543921875E0;-5.448819995E-1;3.738220453E0;8.815345764E0;9.590699114E0
2.545921875E0;-5.469123125E-1;3.739465237E0;8.831960678E0;9.606572893E0
2.547921875E0;-5.554739237E-1;3.728155136E0;8.861065865E0;9.629443403E0
2.549921875E0;-5.567189455E-1;3.717448235E0;8.899372101E0;9.660651176E0
2.551921875E0;-5.648017526E-1;3.700430155E0;8.950454712E0;9.701691806E0
2.553921875E0;-5.530510545E-1;3.671134710E0;8.996127129E0;9.732080910E0
2.555921875E0;-5.384846926E-1;3.649165630E0;9.026254654E0;9.750879378E0
2.557921875E0;-5.121867657E-1;3.626631260E0;9.064696312E0;9.776681891E0
2.559921875E0;-4.838968813E-1;3.604892015E0;9.095504761E0;9.795795500E0
2.561921875E0;-4.558176994E-1;3.583756208E0;9.127414703E0;9.816352556E0
2.563921875E0;-4.335803390E-1;3.569601536E0;9.163260460E0;9.843545565E0
2.565921875E0;-4.042178690E-1;3.565148115E0;9.185144424E0;9.861062380E0
2.567921875E0;-3.824881017E-1;3.562849760E0;9.196732521E0;9.870161327E0
2.569921875E0;-3.736774325E-1;3.561988115E0;9.197422028E0;9.870155324E0
2.571921875E0;-3.778241873E-1;3.566431522E0;9.187911987E0;9.863057924E0
2.573921875E0;-3.836564720E-1;3.576650143E0;9.162112236E0;9.842962926E0
2.575920312E0;-3.989314437E-1;3.574265480E0;9.125145912E0;9.808303010E0
2.577920312E0;-4.098011553E-1;3.560398102E0;9.081503868E0;9.763098081E0
2.579921875E0;-4.262157977E-1;3.546597958E0;9.025651932E0;9.706822846E0
2.581921875E0;-4.520540237E-1;3.536935091E0;8.970939636E0;9.653601433E0
2.583921875E0;-4.857547879E-1;3.533238173E0;8.916285515E0;9.603118092E0
2.585921875E0;-5.291472673E-1;3.528919220E0;8.863602638E0;9.554931681E0
2.587921875E0;-5.687186718E-1;3.525375843E0;8.817165375E0;9.512839797E0
2.589921875E0;-6.061161160E-1;3.513385773E0;8.767988205E0;9.465139909E0
2.591921875E0;-6.433124542E-1;3.510359287E0;8.716455460E0;9.418761544E0
2.593921875E0;-6.762949228E-1;3.517043829E0;8.676136971E0;9.386283868E0
2.596096875E0;-7.005913258E-1;3.513653755E0;8.635856628E0;9.349578099E0
2.597921875E0;-7.222923636E-1;3.501635075E0;8.590884209E0;9.305183821E0
2.599921875E0;-7.349720597E-1;3.502937317E0;8.544158936E0;9.263552542E0
2.601921875E0;-7.573434711E-1;3.506720304E0;8.503111839E0;9.228952670E0
2.603921875E0;-7.687781453E-1;3.518537998E0;8.454816818E0;9.189943249E0
2.605921875E0;-7.772248983E-1;3.531773090E0;8.402125359E0;9.147306174E0
2.607770312E0;-7.972691655E-1;3.540545464E0;8.349126816E0;9.103791457E0
2.609921875E0;-8.120653033E-1;3.549183846E0;8.324897766E0;9.086257692E0
2.611921875E0;-8.313338757E-1;3.569065094E0;8.274016380E0;9.049236914E0
2.613921875E0;-8.451532125E-1;3.585326672E0;8.240756035E0;9.026566973E0
2.615921875E0;-8.603515625E-1;3.599557877E0;8.214429855E0;9.009654797E0
2.617921875E0;-8.708573580E-1;3.621881247E0;8.180987358E0;8.989158495E0
2.619921875E0;-8.709914684E-1;3.636466742E0;8.154851913E0;8.971294568E0
2.621921875E0;-8.706466556E-1;3.654097557E0;8.135458946E0;8.960811728E0
2.623921875E0;-8.607442379E-1;3.666001797E0;8.122271538E0;8.952750681E0
2.625921875E0;-8.418013453E-1;3.678125858E0;8.105243683E0;8.940481782E0
2.627921875E0;-8.252430558E-1;3.700650692E0;8.086904526E0;8.931621715E0
2.629921875E0;-7.940608859E-1;3.712190628E0;8.071734428E0;8.919853622E0
2.631921875E0;-7.560505867E-1;3.730338573E0;8.058825493E0;8.912446728E0
2.633921875E0;-7.157800794E-1;3.743659973E0;8.057369232E0;8.913390492E0
2.635921875E0;-6.786507964E-1;3.770484686E0;8.058633804E0;8.922931159E0
2.637921875E0;-6.378728151E-1;3.793143272E0;8.056278229E0;8.927398082E0
2.639921875E0;-5.891843438E-1;3.824928761E0;8.055224419E0;8.936658137E0
2.641921875E0;-5.424303412E-1;3.867516756E0;8.059821129E0;8.956150577E0
2.643921875E0;-4.964712560E-1;3.898009300E0;8.068296432E0;8.974317107E0
2.645921875E0;-4.547546804E-1;3.924230814E0;8.079492569E0;8.993586019E0
2.647921875E0;-4.135648310E-1;3.948833466E0;8.098779678E0;9.019675930E0
2.649921875E0;-3.850738108E-1;3.960737467E0;8.120653152E0;9.043269914E0
2.651921875E0;-3.436924517E-1;3.975275040E0;8.145658493E0;9.070429341E0
2.653921875E0;-3.116197288E-1;3.982333183E0;8.164994240E0;9.089731315E0
2.655921875E0;-2.824296057E-1;3.985053062E0;8.180125237E0;9.103563219E0
2.657921875E0;-2.649232149E-1;3.982984304E0;8.195122719E0;9.115612138E0
2.659921875E0;-2.485372871E-1;3.983539820E0;8.206663132E0;9.125770106E0
2.661921875E0;-2.465932071E-1;3.974183321E0;8.212198257E0;9.126617199E0
2.663921875E0;-2.436722666E-1;3.968973398E0;8.214420319E0;9.126271264E0
2.665921875E0;-2.453865260E-1;3.963026285E0;8.210253716E0;9.119981248E0
2.667921875E0;-2.591388226E-1;3.956514120E0;8.213232040E0;9.120215867E0
2.669921875E0;-2.666087449E-1;3.947578907E0;8.210646629E0;9.114229398E0
2.671921875E0;-2.863082290E-1;3.944801807E0;8.210676193E0;9.113651148E0
2.673921875E0;-3.020811975E-1;3.946372271E0;8.219275475E0;9.122587159E0
2.676096875E0;-3.147800565E-1;3.944380283E0;8.234895706E0;9.136231696E0
2.677921875E0;-3.211486638E-1;3.944188833E0;8.247200966E0;9.147463353E0
2.679921875E0;-3.109110296E-1;3.949044228E0;8.275702477E0;9.174904221E0
2.681921875E0;-2.987868190E-1;3.948335409E0;8.313961029E0;9.208722716E0
2.683921875E0;-2.596942782E-1;3.950193405E0;8.350678444E0;9.241498771E0
2.685921875E0;-2.209465057E-1;3.968791485E0;8.389483452E0;9.283509886E0
2.687921875E0;-1.844780296E-1;3.987284422E0;8.436525345E0;9.333136081E0
2.689921875E0;-1.515816897E-1;4.007395744E0;8.477829933E0;9.378475251E0
2.691921875E0;-1.222575158E-1;4.038146496E0;8.515179634E0;9.424959322E0
2.693921875E0;-8.808746934E-2;4.072977543E0;8.555468559E0;9.475914084E0
2.695921875E0;-4.841075838E-2;4.105548382E0;8.588365555E0;9.519343151E0
2.697921875E0;-2.238099650E-2;4.138655186E0;8.610928535E0;9.553902757E0
2.699921875E0;1.982399030E-3;4.169636250E0;8.623359680E0;9.578528204E0
2.701921875E0;2.299391292E-2;4.201613426E0;8.633577347E0;9.601705156E0
2.703921875E0;4.151545838E-2;4.235132217E0;8.641383171E0;9.623490611E0
2.705921875E0;6.467217207E-2;4.272634983E0;8.638882637E0;9.637939894E0
2.707921875E0;8.556877077E-2;4.318134308E0;8.637101173E0;9.656765638E0
2.709921875E0;9.508810937E-2;4.365376472E0;8.629315376E0;9.671123893E0
2.711921875E0;1.162911654E-1;4.414275646E0;8.617900848E0;9.683365538E0
2.713921875E0;1.367089301E-1;4.451519966E0;8.596812248E0;9.681936799E0
2.716098437E0;1.506623179E-1;4.492757797E0;8.558821678E0;9.667522965E0
2.718281250E0;1.698925495E-1;4.533468723E0;8.522543907E0;9.654789319E0
2.720385937E0;2.027218491E-1;4.587376595E0;8.488497734E0;9.650891873E0
2.722118750E0;2.407609224E-1;4.642146587E0;8.450153351E0;9.644303107E0
2.723921875E0;2.799588144E-1;4.691332817E0;8.408321381E0;9.632593056E0
2.725921875E0;3.321140707E-1;4.729898930E0;8.362209320E0;9.612948994E0
2.727921875E0;3.824497759E-1;4.766549110E0;8.316221237E0;9.593007553E0
2.729921875E0;4.314926267E-1;4.811090946E0;8.280873299E0;9.586743168E0
2.731921875E0;4.687846899E-1;4.845117092E0;8.236388206E0;9.567288509E0
2.733921875E0;5.043816566E-1;4.891220093E0;8.194059372E0;9.556204468E0
2.735921875E0;5.232575536E-1;4.932285309E0;8.137929916E0;9.530327390E0
2.737921875E0;5.321927667E-1;4.971904755E0;8.081436157E0;9.503298185E0
2.739921875E0;5.273564458E-1;5.011246204E0;8.020115852E0;9.471692121E0
2.741923437E0;5.133647323E-1;5.047350407E0;7.938311100E0;9.421044135E0
2.743921875E0;5.024375916E-1;5.061476707E0;7.862692356E0;9.364449855E0
2.745921875E0;4.806982279E-1;5.083196640E0;7.786882401E0;9.311578619E0
2.747921875E0;4.526669383E-1;5.108038902E0;7.714586735E0;9.263466806E0
2.749921875E0;4.257752597E-1;5.122164726E0;7.650863171E0;9.217025730E0
2.751923437E0;3.942962885E-1;5.135275364E0;7.611166954E0;9.190015508E0
2.753921875E0;3.596186936E-1;5.145829201E0;7.587790012E0;9.175153461E0
2.756096875E0;3.212731183E-1;5.160529137E0;7.574430466E0;9.170947294E0
2.757921875E0;2.780913115E-1;5.183255196E0;7.578443527E0;9.185655964E0
2.759921875E0;2.360587120E-1;5.202858925E0;7.602519512E0;9.215409250E0
2.761923437E0;1.891802400E-1;5.226159096E0;7.631968498E0;9.251782056E0
2.763921875E0;1.549910456E-1;5.240380764E0;7.664251328E0;9.285815052E0
2.765921875E0;1.142513081E-1;5.248137951E0;7.717048168E0;9.333211545E0
2.767921875E0;9.486784786E-2;5.253999233E0;7.760393143E0;9.372150745E0
2.769921875E0;7.263050228E-2;5.268229961E0;7.817576408E0;9.427302001E0
2.771921875E0;4.864060134E-2;5.284242630E0;7.878522873E0;9.486659514E0
2.773921875E0;4.354574159E-2;5.299833298E0;7.944890022E0;9.550466307E0
2.775921875E0;4.776911065E-2;5.308423996E0;8.017032623E0;9.615324191E0
2.777921875E0;4.623682424E-2;5.315280914E0;8.088044167E0;9.678368018E0
2.779921875E0;4.199429601E-2;5.329914570E0;8.160033226E0;9.746583765E0
2.781923437E0;3.320278972E-2;5.353559494E0;8.232826233E0;9.820444464E0
2.783921875E0;2.240015008E-2;5.369466782E0;8.299653053E0;9.885136119E0
2.785921875E0;9.988609701E-3;5.372981548E0;8.359747887E0;9.937525608E0
2.787921875E0;-8.887276985E-3;5.381858826E0;8.413951874E0;9.987946212E0
2.789921875E0;-3.011905588E-2;5.381906509E0;8.462583542E0;1.002901516E1
2.791923437E0;-5.227021128E-2;5.376361847E0;8.504309654E0;1.006137573E1
2.793921875E0;-7.634630799E-2;5.377300262E0;8.539274216E0;1.009160002E1
2.795921875E0;-1.087733656E-1;5.370682716E0;8.573138237E0;1.011705311E1
2.797921875E0;-1.390073597E-1;5.371180534E0;8.602453232E0;1.014253938E1
2.799921875E0;-1.653722972E-1;5.359525681E0;8.625379562E0;1.015623139E1
2.801921875E0;-1.917276829E-1;5.343743324E0;8.651754379E0;1.017080164E1
2.803921875E0;-2.239823639E-1;5.326428413E0;8.661187172E0;1.017040663E1
2.805921875E0;-2.453003228E-1;5.319609642E0;8.679047585E0;1.018254811E1
2.807921875E0;-2.496003062E-1;5.316286564E0;8.691689491E0;1.019169610E1
2.809921875E0;-2.596176565E-1;5.311804771E0;8.695472717E0;1.019283655E1
2.811923437E0;-2.628450394E-1;5.304133892E0;8.700634956E0;1.019332980E1
2.813921875E0;-2.792501152E-1;5.299479485E0;8.710192680E0;1.019950587E1
2.815921875E0;-2.841725647E-1;5.294604301E0;8.717921257E0;1.020371206E1
2.817921875E0;-2.925139666E-1;5.283581734E0;8.726731300E0;1.020576502E1
2.819921875E0;-2.931173444E-1;5.280746937E0;8.734153748E0;1.021066343E1
2.821923437E0;-2.884055376E-1;5.273957253E0;8.748632431E0;1.021941154E1
2.823921875E0;-2.698648274E-1;5.267157555E0;8.758660316E0;1.022398681E1
2.825921875E0;-2.463633567E-1;5.269781590E0;8.786528587E0;1.024862808E1
2.827921875E0;-2.268937081E-1;5.279128551E0;8.822968483E0;1.028423317E1
2.829921875E0;-2.071463317E-1;5.297697544E0;8.873084068E0;1.033634992E1
2.831923437E0;-1.673068106E-1;5.310540676E0;8.937497139E0;1.039753283E1
2.833921875E0;-1.257338971E-1;5.325987816E0;9.008126259E0;1.046557662E1
2.836098437E0;-9.093178064E-2;5.343800545E0;9.083199501E0;1.053892718E1
2.837921875E0;-5.841852352E-2;5.350811005E0;9.170950890E0;1.061795326E1
2.839921875E0;-2.267787978E-2;5.365386486E0;9.253685951E0;1.069666257E1
2.841921875E0;9.691728279E-3;5.371937275E0;9.332483292E0;1.076814972E1
2.843921875E0;5.419514701E-2;5.384339333E0;9.414096832E0;1.084524164E1
2.845921875E0;1.008820832E-1;5.400552750E0;9.499943733E0;1.092817817E1
2.847921875E0;1.445619017E-1;5.405800819E0;9.567421913E0;1.098995645E1
2.849921875E0;1.822083294E-1;5.407036781E0;9.638365746E0;1.105293359E1
2.851921875E0;2.035454512E-1;5.400342464E0;9.699753761E0;1.110361889E1
2.853921875E0;2.201707959E-1;5.393178940E0;9.754656792E0;1.114846103E1
2.855921875E0;2.295081764E-1;5.375768185E0;9.801584244E0;1.118135105E1
2.857921875E0;2.180064172E-1;5.373584270E0;9.830984116E0;1.120585487E1
2.859921875E0;1.909040660E-1;5.369648457E0;9.847600937E0;1.121805746E1
2.861923437E0;1.586302370E-1;5.356011391E0;9.846212387E0;1.120981356E1
2.863921875E0;1.395245045E-1;5.351059914E0;9.830362320E0;1.119327176E1
2.865921875E0;1.113112271E-1;5.345409870E0;9.808374405E0;1.117094469E1
2.867921875E0;7.201758772E-2;5.336053371E0;9.774500847E0;1.113640512E1
2.869921875E0;5.273947492E-2;5.328535080E0;9.738425255E0;1.110103572E1
2.871921875E0;3.661213443E-2;5.312790871E0;9.713937759E0;1.107193181E1
2.873921875E0;2.772485465E-2;5.310397148E0;9.694706917E0;1.105388749E1
2.875921875E0;2.232353576E-2;5.315970898E0;9.684545517E0;1.104764531E1
2.877921875E0;2.236184292E-2;5.326418877E0;9.687620163E0;1.105537075E1
2.879921875E0;1.639549248E-2;5.345945835E0;9.699379921E0;1.107507908E1
2.881923437E0;1.232535113E-2;5.346846104E0;9.713075638E0;1.108750439E1
2.883921875E0;1.217212062E-2;5.355867863E0;9.730935097E0;1.110750047E1
2.885921875E0;1.030464470E-2;5.370529652E0;9.740628242E0;1.112306313E1
2.887921875E0;1.549527328E-2;5.381906509E0;9.739516258E0;1.112759339E1
2.889921875E0;1.651041396E-2;5.385958195E0;9.728915215E0;1.112027920E1
2.891923437E0;1.423113514E-2;5.380968094E0;9.716829300E0;1.110728553E1
2.893921875E0;6.924031302E-3;5.377194881E0;9.698068619E0;1.108903998E1
2.895921875E0;7.460332476E-3;5.371860981E0;9.676319122E0;1.106743411E1
2.897921875E0;-1.302445773E-3;5.369657993E0;9.646534920E0;1.104032901E1
2.899921875E0;-1.015141513E-2;5.366075993E0;9.614271164E0;1.101040801E1
2.901923437E0;-2.088701539E-2;5.370481968E0;9.582408905E0;1.098476551E1
2.903921875E0;-3.688985854E-2;5.361987114E0;9.551753998E0;1.095391579E1
2.905921875E0;-4.671566561E-2;5.355791092E0;9.522458076E0;1.092537818E1
2.907921875E0;-4.257848486E-2;5.352869987E0;9.497079849E0;1.090181433E1
2.909921875E0;-4.487691447E-2;5.351826191E0;9.471950531E0;1.087942574E1
2.911923437E0;-3.904464096E-2;5.351605892E0;9.443890572E0;1.085487352E1
2.913921875E0;-1.810974069E-2;5.350543022E0;9.422409058E0;1.083560940E1
2.916098437E0;-2.097320743E-3;5.348512650E0;9.398994446E0;1.081423546E1
2.917921875E0;1.558146439E-2;5.366334915E0;9.374505997E0;1.080181262E1
2.919921875E0;2.439212613E-2;5.382500648E0;9.355792999E0;1.079364493E1
2.921923437E0;2.143289335E-2;5.401558399E0;9.344740868E0;1.079358487E1
2.923921875E0;2.183511853E-2;5.421076298E0;9.333383560E0;1.079354407E1
2.925921875E0;1.891419478E-2;5.431859493E0;9.311778069E0;1.078029063E1
2.927921875E0;7.105990313E-3;5.441742897E0;9.281064987E0;1.075875381E1
2.929921875E0;-2.164358273E-3;5.440603256E0;9.250744820E0;1.073202908E1
2.931923437E0;-1.270842273E-2;5.441647053E0;9.213405609E0;1.070039845E1
2.933921875E0;-2.708321065E-2;5.451511383E0;9.179303169E0;1.067610962E1
2.935921875E0;-4.229117930E-2;5.461815834E0;9.134080887E0;1.064258683E1
2.937921875E0;-6.458598375E-2;5.481218338E0;9.086148262E0;1.061159819E1
2.939921875E0;-9.549034387E-2;5.493629932E0;9.040706635E0;1.057938867E1
2.941921875E0;-1.301966906E-1;5.502785206E0;8.992477417E0;1.054335081E1
2.943921875E0;-1.753226072E-1;5.514459610E0;8.944354057E0;1.050911377E1
2.945921875E0;-2.117815167E-1;5.534436703E0;8.893904686E0;1.047742247E1
2.947921875E0;-2.424081266E-1;5.552709103E0;8.843060493E0;1.044466653E1
2.949921875E0;-2.661011517E-1;5.552527428E0;8.795176506E0;1.040463841E1
2.951923437E0;-2.875819504E-1;5.552575111E0;8.744189262E0;1.036217350E1
2.953921875E0;-3.046573699E-1;5.545334816E0;8.690367699E0;1.031339154E1
2.955921875E0;-3.092925549E-1;5.544865608E0;8.624575615E0;1.025789945E1
2.957921875E0;-3.011331260E-1;5.534867764E0;8.562201500E0;1.019984004E1
2.959921875E0;-2.839139998E-1;5.524428844E0;8.493526459E0;1.013606990E1
2.961923437E0;-2.687347829E-1;5.502057552E0;8.417677879E0;1.005992826E1
2.963921875E0;-2.533161044E-1;5.480250835E0;8.346216202E0;9.987824746E0
2.965921875E0;-2.448310703E-1;5.441158772E0;8.277215004E0;9.908503381E0
2.967921875E0;-2.256870270E-1;5.393073082E0;8.204967499E0;9.821286248E0
2.969921875E0;-2.033347636E-1;5.345945835E0;8.143274307E0;9.743377153E0
2.971923437E0;-1.808580011E-1;5.288676739E0;8.085411072E0;9.663161153E0
2.973921875E0;-1.431541145E-1;5.226973057E0;8.034701347E0;9.586353122E0
2.975921875E0;-1.032954380E-1;5.152082443E0;7.987506866E0;9.505518891E0
2.977921875E0;-6.252697110E-2;5.079413891E0;7.939450741E0;9.425456655E0
2.979921875E0;-1.368525717E-2;5.009972095E0;7.905309200E0;9.359162422E0
2.981921875E0;2.997540496E-2;4.934430599E0;7.876980782E0;9.294962619E0
2.983921875E0;7.426813245E-2;4.864998341E0;7.858861923E0;9.243129088E0
2.985921875E0;1.256572753E-1;4.802385807E0;7.857961655E0;9.210117293E0
2.987921875E0;1.787510961E-1;4.742415428E0;7.883464336E0;9.201709949E0
2.989921875E0;2.294028252E-1;4.692855358E0;7.917213440E0;9.206399172E0
2.991923437E0;2.943910658E-1;4.655822277E0;7.981924057E0;9.245239793E0
2.993921875E0;3.620799184E-1;4.615839005E0;8.067741394E0;9.301909631E0
2.996096875E0;4.301997423E-1;4.573135853E0;8.175767899E0;9.377730220E0
2.997921875E0;4.997848272E-1;4.543065071E0;8.303915024E0;9.478619617E0
2.999921875E0;5.551962256E-1;4.516718864E0;8.446063042E0;9.594007143E0
3.001923437E0;6.040188074E-1;4.487194061E0;8.592732430E0;9.712610353E0
3.003921875E0;6.605985761E-1;4.446492195E0;8.758142471E0;9.844426995E0
3.005921875E0;7.083677053E-1;4.406499386E0;8.920459747E0;9.974649054E0
3.007921875E0;7.460715175E-1;4.374484539E0;9.083601952E0;1.010962720E1
3.009921875E0;7.832103968E-1;4.325987339E0;9.244434357E0;1.023655956E1
3.011921875E0;8.126782179E-1;4.274617195E0;9.395738602E0;1.035435666E1
3.013921875E0;8.404797316E-1;4.206286430E0;9.530349731E0;1.045116346E1
3.015921875E0;8.708477616E-1;4.139555454E0;9.653162956E0;1.053934771E1
3.017921875E0;8.956038356E-1;4.070305824E0;9.770306587E0;1.062207073E1
3.019921875E0;9.188179970E-1;4.015622139E0;9.862703323E0;1.068842198E1
3.021923437E0;9.451829195E-1;3.953804016E0;9.945963860E0;1.074467934E1
3.023921875E0;9.754647613E-1;3.908285141E0;1.002496243E1;1.080398518E1
3.025921875E0;1.000900865E0;3.878252506E0;1.009112930E1;1.085695794E1
3.027921875E0;1.023233891E0;3.876518965E0;1.014663696E1;1.091002514E1
3.029921875E0;1.043201566E0;3.883107901E0;1.018407249E1;1.094906978E1
3.031921875E0;1.046448112E0;3.897798538E0;1.020247841E1;1.097171148E1
3.033921875E0;1.047099352E0;3.919538021E0;1.019911766E1;1.097639269E1
3.035921875E0;1.044513583E0;3.937092304E0;1.017085648E1;1.095618665E1
3.037921875E0;1.052625179E0;3.954522133E0;1.011394119E1;1.091045698E1
3.039921875E0;1.044283748E0;3.962279320E0;1.003451061E1;1.083889243E1
3.041923437E0;1.030330300E0;3.971980810E0;9.921446800E0;1.073654128E1
3.043921875E0;1.003965378E0;3.979718685E0;9.787208557E0;1.061299009E1
3.045921875E0;9.778686166E-1;3.976941347E0;9.636461258E0;1.047061006E1
3.047921875E0;9.456139207E-1;3.977793694E0;9.481929779E0;1.032589079E1
3.049921875E0;8.987737298E-1;3.973436356E0;9.328901291E0;1.017960657E1
3.051923437E0;8.472313881E-1;3.966205835E0;9.187691689E0;1.004302088E1
3.053921875E0;7.976522446E-1;3.958956003E0;9.058395386E0;9.917868153E0
3.055921875E0;7.524880171E-1;3.953219652E0;8.949879646E0;9.812977607E0
3.057921875E0;7.040772438E-1;3.958467722E0;8.856353760E0;9.726263074E0
3.059921875E0;6.490585208E-1;3.961944103E0;8.797129631E0;9.669941457E0
3.061921875E0;5.975065231E-1;3.959071159E0;8.756247520E0;9.628246420E0
3.063921875E0;5.552154183E-1;3.960335255E0;8.732611656E0;9.604739758E0
3.066098437E0;5.163622499E-1;3.958228350E0;8.716895103E0;9.587411636E0
3.067990625E0;4.798746407E-1;3.957519531E0;8.711820602E0;9.580608473E0
3.069921875E0;4.278438389E-1;3.945854902E0;8.698154449E0;9.560894942E0
3.071921875E0;3.725377917E-1;3.949542284E0;8.676376343E0;9.540292192E0
3.073921875E0;3.276321292E-1;3.953018665E0;8.647310257E0;9.513657239E0
3.076096875E0;2.793267071E-1;3.954234838E0;8.602395058E0;9.471810666E0
3.077921875E0;2.225266844E-1;3.962825298E0;8.547636032E0;9.424202046E0
3.079921875E0;1.642805487E-1;3.982285261E0;8.483403206E0;9.373031204E0
3.081921875E0;1.072123498E-1;4.005221844E0;8.415810585E0;9.320899329E0
3.083921875E0;4.356489703E-2;4.032707214E0;8.342413902E0;9.266093842E0
3.085921875E0;-1.196143124E-2;4.061408997E0;8.270300865E0;9.213743133E0
3.087921875E0;-6.410714984E-2;4.092725277E0;8.198004723E0;9.163066700E0
3.089921875E0;-1.119816080E-1;4.127211094E0;8.120242119E0;9.109596224E0
3.091921875E0;-1.531139761E-1;4.157512188E0;8.051422119E0;9.062767217E0
3.093771875E0;-1.863838136E-1;4.190417767E0;7.982957840E0;9.017868698E0
3.095921875E0;-1.956828982E-1;4.207445621E0;7.948194504E0;8.995259103E0
3.097921875E0;-2.188970745E-1;4.225995541E0;7.875735760E0;8.940591032E0
3.099921875E0;-2.332910150E-1;4.242726326E0;7.798681259E0;8.881136231E0
3.101921875E0;-2.478956431E-1;4.260577679E0;7.729076862E0;8.829077163E0
3.103921875E0;-2.538332641E-1;4.279597282E0;7.656273842E0;8.774845490E0
3.105921875E0;-2.599719763E-1;4.290706635E0;7.586382389E0;8.719572616E0
3.107921875E0;-2.594165206E-1;4.298703194E0;7.518636227E0;8.664642912E0
3.109921875E0;-2.654212117E-1;4.304276943E0;7.455811977E0;8.613151611E0
3.111921875E0;-2.726612687E-1;4.309610844E0;7.395956993E0;8.564302052E0
3.113921875E0;-2.766739428E-1;4.312646866E0;7.327971458E0;8.507328438E0
3.115921875E0;-2.751703858E-1;4.310290813E0;7.282385826E0;8.466845278E0
3.117921875E0;-2.651626170E-1;4.298559189E0;7.252122879E0;8.434524798E0
3.119921875E0;-2.511038780E-1;4.294182777E0;7.231609821E0;8.414228395E0
3.121921875E0;-2.352542579E-1;4.279291153E0;7.225853920E0;8.401228613E0
3.123921875E0;-2.215785831E-1;4.267875195E0;7.222559452E0;8.392211912E0
3.125921875E0;-2.032868862E-1;4.250531673E0;7.231284142E0;8.390459785E0
3.127921875E0;-1.858666688E-1;4.235486507E0;7.253750801E0;8.401832720E0
3.129921875E0;-1.652765423E-1;4.229328632E0;7.293753624E0;8.432874892E0
3.131921875E0;-1.400895268E-1;4.213670254E0;7.347737789E0;8.471357194E0
3.133921875E0;-1.082849577E-1;4.204582214E0;7.403254986E0;8.514600496E0
3.135921875E0;-6.275681406E-2;4.183579922E0;7.473816395E0;8.565291056E0
3.137921875E0;-1.086967532E-2;4.165518284E0;7.543315411E0;8.617033603E0
3.139921875E0;5.593812838E-2;4.162597179E0;7.620791912E0;8.683709675E0
3.141921875E0;1.311256438E-1;4.151172161E0;7.702721596E0;8.751076747E0
3.143921875E0;2.067824155E-1;4.150147438E0;7.794141769E0;8.832617316E0
3.145921875E0;2.823625803E-1;4.149640083E0;7.892572403E0;8.921431532E0
3.147921875E0;3.638994992E-1;4.147216797E0;7.998980045E0;9.017511396E0
3.149921875E0;4.399489164E-1;4.152848244E0;8.119877815E0;9.130833441E0
3.151921875E0;4.981854856E-1;4.162214279E0;8.255906105E0;9.259168543E0
3.153921875E0;5.601091385E-1;4.172528267E0;8.393850327E0;9.390443956E0
3.156098437E0;6.188340783E-1;4.169004440E0;8.528836250E0;9.513390638E0
3.157921875E0;6.757681966E-1;4.170335293E0;8.672008514E0;9.646351164E0
3.159921875E0;7.378642559E-1;4.158938885E0;8.811408997E0;9.771496549E0
3.161921875E0;8.069896102E-1;4.137534618E0;8.956296921E0;9.898771615E0
3.163921875E0;8.707232475E-1;4.117174625E0;9.097517014E0;1.002367705E1
3.165921875E0;9.207237363E-1;4.090196609E0;9.236561775E0;1.014354543E1
3.167921875E0;9.752636552E-1;4.060029984E0;9.367179871E0;1.025568337E1
3.169921875E0;1.023444653E0;4.027286530E0;9.496697426E0;1.036598947E1
3.171921875E0;1.056704879E0;3.994323254E0;9.612135887E0;1.046252359E1
3.173921875E0;1.099120498E0;3.972066879E0;9.707242966E0;1.054589717E1
3.175921875E0;1.126567602E0;3.954081535E0;9.796833992E0;1.062458807E1
3.177921875E0;1.144007087E0;3.942924500E0;9.874540329E0;1.069401480E1
3.179921875E0;1.153976440E0;3.945165634E0;9.940648079E0;1.075697345E1
3.181921875E0;1.151888847E0;3.945136786E0;9.998569489E0;1.081028880E1
3.183921875E0;1.140406132E0;3.940281391E0;1.003580379E1;1.084175730E1
3.185921875E0;1.128866076E0;3.936699629E0;1.006050301E1;1.086212057E1
3.187921875E0;1.110401988E0;3.938528776E0;1.006632519E1;1.086627371E1
3.189921875E0;1.080666065E0;3.936958313E0;1.004671192E1;1.084453320E1
3.191921875E0;1.054473519E0;3.924709558E0;1.001509857E1;1.080821257E1
3.193921875E0;1.019690514E0;3.919375181E0;9.970633507E0;1.076172863E1
3.195921875E0;9.896959066E-1;3.924556255E0;9.912234306E0;1.070672820E1
3.197921875E0;9.628521800E-1;3.928061247E0;9.848759651E0;1.064682188E1
3.199921875E0;9.389005899E-1;3.936115503E0;9.785361290E0;1.058904316E1
3.201921875E0;9.220549464E-1;3.942742586E0;9.713525772E0;1.052368697E1
3.203921875E0;8.932670951E-1;3.955412865E0;9.648786545E0;1.046624569E1
3.205921875E0;8.701295257E-1;3.984114408E0;9.581643105E0;1.041336533E1
3.207921875E0;8.588576317E-1;4.013045788E0;9.514624596E0;1.036196189E1
3.209921875E0;8.432090878E-1;4.047302246E0;9.453562737E0;1.031801848E1
3.211921875E0;8.358349800E-1;4.071837902E0;9.386198997E0;1.026543792E1
3.213921875E0;8.316498995E-1;4.100673676E0;9.314968109E0;1.021155214E1
3.216068750E0;8.164994121E-1;4.127469540E0;9.238065720E0;1.015108538E1
3.218300000E0;8.033695817E-1;4.146604061E0;9.160034180E0;1.008691995E1
3.220106250E0;7.980640531E-1;4.167797565E0;9.079100609E0;1.002185166E1
3.221921875E0;7.716033459E-1;4.193204880E0;8.994585037E0;9.953938863E0
3.223921875E0;7.483891845E-1;4.217587471E0;8.911649704E0;9.887650423E0
3.225921875E0;7.265635729E-1;4.235170364E0;8.833742142E0;9.823419103E0
3.227921875E0;7.088656425E-1;4.244957924E0;8.745607376E0;9.747194809E0
3.229921875E0;6.954677105E-1;4.259734631E0;8.655517578E0;9.671969758E0
3.231921875E0;6.663446426E-1;4.273228645E0;8.566261292E0;9.596110189E0
3.233921875E0;6.420674324E-1;4.293253899E0;8.478107452E0;9.524840450E0
3.236096875E0;6.185468435E-1;4.316123009E0;8.386237144E0;9.452009917E0
3.237921875E0;5.896918774E-1;4.333169937E0;8.296368599E0;9.378370335E0
3.239921875E0;5.511931181E-1;4.348980904E0;8.220118523E0;9.315996848E0
3.241921875E0;5.126560926E-1;4.374838352E0;8.154296875E0;9.267933125E0
3.243921875E0;4.822975695E-1;4.402161121E0;8.093358994E0;9.225729959E0
3.245921875E0;4.478019178E-1;4.433630466E0;8.046327591E0;9.197879830E0
3.247921875E0;4.191193879E-1;4.458702564E0;8.015710831E0;9.181901205E0
3.249921875E0;3.880617917E-1;4.483420372E0;7.994584560E0;9.174150232E0
3.251921875E0;3.610839248E-1;4.507458210E0;7.980640411E0;9.172686765E0
3.253921875E0;3.327269852E-1;4.526008129E0;7.958719254E0;9.161695749E0
3.255921875E0;3.000509441E-1;4.532941818E0;7.943041801E0;9.150382787E0
3.257921875E0;2.903687656E-1;4.540469170E0;7.936807156E0;9.148392325E0
3.259921875E0;2.836937606E-1;4.551751137E0;7.934988022E0;9.152210414E0
3.261921875E0;2.778327465E-1;4.555466652E0;7.941049576E0;9.159134010E0
3.263921875E0;2.717897594E-1;4.567409039E0;7.947935581E0;9.170865554E0
3.265921875E0;2.643868923E-1;4.577914715E0;7.963268280E0;9.189169999E0
3.267921875E0;2.483361810E-1;4.589847565E0;7.991232395E0;9.218902685E0
3.269921875E0;2.287611812E-1;4.600630760E0;8.016275406E0;9.245474918E0
3.271921875E0;2.127104551E-1;4.611606121E0;8.038847923E0;9.270125818E0
3.273921875E0;1.901091933E-1;4.613157272E0;8.058978081E0;9.287867852E0
3.275921875E0;1.597890109E-1;4.609537601E0;8.076810837E0;9.300980740E0
3.277921875E0;1.251209825E-1;4.604614735E0;8.091817856E0;9.311049797E0
3.279921875E0;8.407478034E-2;4.595354080E0;8.098405838E0;9.311741234E0
3.281921875E0;5.024950579E-2;4.583919525E0;8.098042488E0;9.305543260E0
3.283921875E0;2.313756570E-2;4.566480160E0;8.099191666E0;9.297859003E0
3.285921875E0;-6.033387966E-3;4.556826591E0;8.100034714E0;9.293829531E0
3.287921875E0;-3.070324287E-2;4.547642708E0;8.084328651E0;9.275686855E0
3.289921875E0;-4.580586776E-2;4.527282238E0;8.068096161E0;9.251624630E0
3.291921875E0;-5.103480443E-2;4.523116112E0;8.056718826E0;9.239691670E0
3.293921875E0;-4.994304478E-2;4.525931835E0;8.034116745E0;9.221365688E0
3.295921875E0;-5.077622831E-2;4.533076286E0;8.016869545E0;9.209861896E0
3.297921875E0;-4.041412473E-2;4.546837807E0;8.000761032E0;9.202583574E0
3.299921875E0;-3.909252584E-2;4.567791939E0;7.983149529E0;9.197658823E0
3.301921875E0;-4.268382490E-2;4.588478088E0;7.958230495E0;9.186369560E0
3.303921875E0;-4.682100564E-2;4.612658978E0;7.938617229E0;9.181528117E0
3.305921875E0;-4.423527047E-2;4.635385036E0;7.910126686E0;9.168361652E0
3.307921875E0;-2.802173607E-2;4.662851334E0;7.870497704E0;9.148098266E0
3.309921875E0;-8.628702722E-3;4.677590370E0;7.830303669E0;9.121051566E0
3.311921875E0;1.461420767E-2;4.696092606E0;7.794323921E0;9.099724431E0
3.313985937E0;4.258805886E-2;4.717908859E0;7.751543999E0;9.074519938E0
3.316096875E0;6.338888407E-2;4.738651752E0;7.709070683E0;9.049232529E0
3.317921875E0;9.562440962E-2;4.762641430E0;7.672832012E0;9.031292737E0
3.319921875E0;1.222575158E-1;4.788929939E0;7.634266376E0;9.012814209E0
3.321921875E0;1.514380425E-1;4.813332081E0;7.605622292E0;9.002032528E0
3.323921875E0;1.834341586E-1;4.839160442E0;7.585051060E0;8.999117815E0
3.325921875E0;2.184086591E-1;4.868647575E0;7.565255642E0;8.999140208E0
3.327921875E0;2.587557435E-1;4.905882359E0;7.558686733E0;9.014897747E0
3.329921875E0;2.827647924E-1;4.948939323E0;7.555142879E0;9.036157385E0
3.331921875E0;3.050500154E-1;4.985311985E0;7.552624226E0;9.054751448E0
3.333921875E0;3.333207667E-1;5.017231464E0;7.551139832E0;9.072123624E0
3.335921875E0;3.633536398E-1;5.054705620E0;7.558417797E0;9.100096393E0
3.337921875E0;3.892876208E-1;5.082794666E0;7.561511040E0;9.119363776E0
3.339921875E0;4.154323041E-1;5.092601299E0;7.568493366E0;9.131772217E0
3.341921875E0;4.418547153E-1;5.107569695E0;7.586248398E0;9.156072768E0
3.343921875E0;4.532990158E-1;5.111333370E0;7.609500885E0;9.178001555E0
3.345921875E0;4.727782309E-1;5.120124817E0;7.644781590E0;9.213136434E0
3.347921875E0;4.981950819E-1;5.129041195E0;7.682160378E0;9.250451340E0
3.349921875E0;5.092658401E-1;5.135601044E0;7.713150501E0;9.280433203E0
3.351921875E0;5.117270947E-1;5.147610188E0;7.736163616E0;9.306340997E0
